"id","itemTime","trialnumber","value","access","observation","answer1","answer2","RT","answer3","answer.full","uncertainty"
"6905ef4b2a5f2d427f275190cbdbdc3f65f785b7b2e32c59198c9942336d5930",1456171479347,1,107,10,7,"is_certainly","probable",18214,"likely","is_certainly likely","none"
"6905ef4b2a5f2d427f275190cbdbdc3f65f785b7b2e32c59198c9942336d5930",1456171487254,2,41,4,1,"might_be","possible",7905,"possible","might_be possible","high"
"6905ef4b2a5f2d427f275190cbdbdc3f65f785b7b2e32c59198c9942336d5930",1456171502803,3,42,4,2,"is_certainly","possible",15547,"possible","is_certainly possible","high"
"6905ef4b2a5f2d427f275190cbdbdc3f65f785b7b2e32c59198c9942336d5930",1456171511317,4,108,10,8,"is","likely",8508,"likely","is likely","none"
"6905ef4b2a5f2d427f275190cbdbdc3f65f785b7b2e32c59198c9942336d5930",1456171520312,5,84,8,4,"is","possible",8993,"possible","is possible","low"
"6905ef4b2a5f2d427f275190cbdbdc3f65f785b7b2e32c59198c9942336d5930",1456171529369,6,105,10,5,"is_certainly","likely",9055,"likely","is_certainly likely","none"
"6905ef4b2a5f2d427f275190cbdbdc3f65f785b7b2e32c59198c9942336d5930",1456171535521,7,102,10,2,"is","unlikely",6150,"unlikely","is unlikely","none"
"6905ef4b2a5f2d427f275190cbdbdc3f65f785b7b2e32c59198c9942336d5930",1456171543632,8,80,8,0,"is","unlikely",8109,"unlikely","is unlikely","low"
"6905ef4b2a5f2d427f275190cbdbdc3f65f785b7b2e32c59198c9942336d5930",1456171550110,9,43,4,3,"is_probably","likely",6477,"likely","is_probably likely","high"
"6905ef4b2a5f2d427f275190cbdbdc3f65f785b7b2e32c59198c9942336d5930",1456171566375,10,103,10,3,"might_be","possible",16262,"possible","might_be possible","none"
"6905ef4b2a5f2d427f275190cbdbdc3f65f785b7b2e32c59198c9942336d5930",1456171572276,11,86,8,6,"is","likely",5896,"likely","is likely","low"
"6905ef4b2a5f2d427f275190cbdbdc3f65f785b7b2e32c59198c9942336d5930",1456171577713,12,82,8,2,"might_be","possible",5435,"possible","might_be possible","low"
"e57a5110c1b9280ede3026d5857ec45aa9cd70d55874b2cada21dd38448e1458",1456178885616,1,86,8,6,"is_probably","probable",18169,"likely","is_probably likely","low"
"e57a5110c1b9280ede3026d5857ec45aa9cd70d55874b2cada21dd38448e1458",1456178893945,2,84,8,4,"might_be","possible",8327,"possible","might_be possible","low"
"e57a5110c1b9280ede3026d5857ec45aa9cd70d55874b2cada21dd38448e1458",1456178905165,3,103,10,3,"is_certainly","probable",11218,"likely","is_certainly likely","none"
"e57a5110c1b9280ede3026d5857ec45aa9cd70d55874b2cada21dd38448e1458",1456178916580,4,43,4,3,"is_probably","likely",11414,"likely","is_probably likely","high"
"e57a5110c1b9280ede3026d5857ec45aa9cd70d55874b2cada21dd38448e1458",1456178934408,5,105,10,5,"might_be","possible",17826,"possible","might_be possible","none"
"e57a5110c1b9280ede3026d5857ec45aa9cd70d55874b2cada21dd38448e1458",1456178942727,6,88,8,8,"is_certainly","probable",8317,"likely","is_certainly likely","low"
"e57a5110c1b9280ede3026d5857ec45aa9cd70d55874b2cada21dd38448e1458",1456178951907,7,80,8,0,"is_probably","unlikely",9179,"unlikely","is_probably unlikely","low"
"e57a5110c1b9280ede3026d5857ec45aa9cd70d55874b2cada21dd38448e1458",1456178962273,8,102,10,2,"might_be","unlikely",10364,"unlikely","might_be unlikely","none"
"e57a5110c1b9280ede3026d5857ec45aa9cd70d55874b2cada21dd38448e1458",1456178968975,9,42,4,2,"might_be","possible",6701,"possible","might_be possible","high"
"e57a5110c1b9280ede3026d5857ec45aa9cd70d55874b2cada21dd38448e1458",1456178976298,10,82,8,2,"is_probably","unlikely",7321,"unlikely","is_probably unlikely","low"
"e57a5110c1b9280ede3026d5857ec45aa9cd70d55874b2cada21dd38448e1458",1456178982661,11,20,2,0,"is_certainly","unlikely",6361,"unlikely","is_certainly unlikely","high"
"e57a5110c1b9280ede3026d5857ec45aa9cd70d55874b2cada21dd38448e1458",1456178991304,12,107,10,7,"might_be","probable",8642,"likely","might_be likely","none"
"44f51f86802d362fc9fbcf8717a1c951c8e35a443cd2a9541fcbbe0ef913029c",1456259814763,1,41,4,1,"might_be","unlikely",30524,"unlikely","might_be unlikely","high"
"44f51f86802d362fc9fbcf8717a1c951c8e35a443cd2a9541fcbbe0ef913029c",1456259828445,2,108,10,8,"is_certainly","likely",13667,"likely","is_certainly likely","none"
"44f51f86802d362fc9fbcf8717a1c951c8e35a443cd2a9541fcbbe0ef913029c",1456259838293,3,103,10,3,"is_certainly","unlikely",9840,"unlikely","is_certainly unlikely","none"
"44f51f86802d362fc9fbcf8717a1c951c8e35a443cd2a9541fcbbe0ef913029c",1456259847412,4,105,10,5,"is_certainly","possible",9112,"possible","is_certainly possible","none"
"44f51f86802d362fc9fbcf8717a1c951c8e35a443cd2a9541fcbbe0ef913029c",1456259860838,5,88,8,8,"is_certainly","likely",13418,"likely","is_certainly likely","low"
"44f51f86802d362fc9fbcf8717a1c951c8e35a443cd2a9541fcbbe0ef913029c",1456259878779,6,42,4,2,"might_be","possible",17935,"possible","might_be possible","high"
"44f51f86802d362fc9fbcf8717a1c951c8e35a443cd2a9541fcbbe0ef913029c",1456259885464,7,82,8,2,"might_be","unlikely",6677,"unlikely","might_be unlikely","low"
"44f51f86802d362fc9fbcf8717a1c951c8e35a443cd2a9541fcbbe0ef913029c",1456259891792,8,86,8,6,"might_be","likely",6316,"likely","might_be likely","low"
"44f51f86802d362fc9fbcf8717a1c951c8e35a443cd2a9541fcbbe0ef913029c",1456259914640,9,20,2,0,"might_be","unlikely",22833,"unlikely","might_be unlikely","high"
"44f51f86802d362fc9fbcf8717a1c951c8e35a443cd2a9541fcbbe0ef913029c",1456259921234,10,107,10,7,"is","likely",6582,"likely","is likely","none"
"44f51f86802d362fc9fbcf8717a1c951c8e35a443cd2a9541fcbbe0ef913029c",1456259929753,11,80,8,0,"is_probably","unlikely",8511,"unlikely","is_probably unlikely","low"
"44f51f86802d362fc9fbcf8717a1c951c8e35a443cd2a9541fcbbe0ef913029c",1456259938849,12,84,8,4,"is","possible",9089,"possible","is possible","low"
"a53fda334a6cf8ae64bd36d02ece3e03119c9fff5b94b79bb9d14c7bb8fee906",1456169527715,1,107,10,7,"is","probable",18724,"likely","is likely","none"
"a53fda334a6cf8ae64bd36d02ece3e03119c9fff5b94b79bb9d14c7bb8fee906",1456169547091,2,105,10,5,"is","possible",19370,"possible","is possible","none"
"a53fda334a6cf8ae64bd36d02ece3e03119c9fff5b94b79bb9d14c7bb8fee906",1456169562507,3,20,2,0,"might_be","possible",15398,"possible","might_be possible","high"
"a53fda334a6cf8ae64bd36d02ece3e03119c9fff5b94b79bb9d14c7bb8fee906",1456169578195,4,84,8,4,"might_be","possible",15671,"possible","might_be possible","low"
"a53fda334a6cf8ae64bd36d02ece3e03119c9fff5b94b79bb9d14c7bb8fee906",1456169585924,5,108,10,8,"is","probable",7722,"likely","is likely","none"
"a53fda334a6cf8ae64bd36d02ece3e03119c9fff5b94b79bb9d14c7bb8fee906",1456169594179,6,102,10,2,"is","unlikely",8250,"unlikely","is unlikely","none"
"a53fda334a6cf8ae64bd36d02ece3e03119c9fff5b94b79bb9d14c7bb8fee906",1456169605203,7,86,8,6,"is_probably","likely",11018,"likely","is_probably likely","low"
"a53fda334a6cf8ae64bd36d02ece3e03119c9fff5b94b79bb9d14c7bb8fee906",1456169614195,8,43,4,3,"is","probable",8986,"likely","is likely","high"
"a53fda334a6cf8ae64bd36d02ece3e03119c9fff5b94b79bb9d14c7bb8fee906",1456169623404,9,88,8,8,"is_certainly","likely",9202,"likely","is_certainly likely","low"
"a53fda334a6cf8ae64bd36d02ece3e03119c9fff5b94b79bb9d14c7bb8fee906",1456169628221,10,22,2,2,"is","possible",4810,"possible","is possible","high"
"a53fda334a6cf8ae64bd36d02ece3e03119c9fff5b94b79bb9d14c7bb8fee906",1456169633309,11,42,4,2,"is","possible",5082,"possible","is possible","high"
"a53fda334a6cf8ae64bd36d02ece3e03119c9fff5b94b79bb9d14c7bb8fee906",1456169642484,12,82,8,2,"is_probably","unlikely",9169,"unlikely","is_probably unlikely","low"
"5763b653d9e5f9d5d9a52b055c4107fbbfd82e303691212fddaaba732e44d254",1456170934510,1,86,8,6,"might_be","possible",26178,"possible","might_be possible","low"
"5763b653d9e5f9d5d9a52b055c4107fbbfd82e303691212fddaaba732e44d254",1456170943596,2,82,8,2,"is_probably","unlikely",9080,"unlikely","is_probably unlikely","low"
"5763b653d9e5f9d5d9a52b055c4107fbbfd82e303691212fddaaba732e44d254",1456170954493,3,42,4,2,"is","possible",10893,"possible","is possible","high"
"5763b653d9e5f9d5d9a52b055c4107fbbfd82e303691212fddaaba732e44d254",1456170967372,4,80,8,0,"is_certainly","unlikely",12875,"unlikely","is_certainly unlikely","low"
"5763b653d9e5f9d5d9a52b055c4107fbbfd82e303691212fddaaba732e44d254",1456170975834,5,105,10,5,"is","possible",8458,"possible","is possible","none"
"5763b653d9e5f9d5d9a52b055c4107fbbfd82e303691212fddaaba732e44d254",1456170986719,6,88,8,8,"is_certainly","likely",10881,"likely","is_certainly likely","low"
"5763b653d9e5f9d5d9a52b055c4107fbbfd82e303691212fddaaba732e44d254",1456170997507,7,20,2,0,"is_certainly","unlikely",10784,"unlikely","is_certainly unlikely","high"
"5763b653d9e5f9d5d9a52b055c4107fbbfd82e303691212fddaaba732e44d254",1456171010489,8,103,10,3,"might_be","possible",12978,"possible","might_be possible","none"
"5763b653d9e5f9d5d9a52b055c4107fbbfd82e303691212fddaaba732e44d254",1456171020739,9,107,10,7,"might_be","probable",10247,"likely","might_be likely","none"
"5763b653d9e5f9d5d9a52b055c4107fbbfd82e303691212fddaaba732e44d254",1456171026289,10,102,10,2,"might_be","unlikely",5547,"unlikely","might_be unlikely","none"
"5763b653d9e5f9d5d9a52b055c4107fbbfd82e303691212fddaaba732e44d254",1456171039692,11,22,2,2,"is_certainly","likely",13399,"likely","is_certainly likely","high"
"5763b653d9e5f9d5d9a52b055c4107fbbfd82e303691212fddaaba732e44d254",1456171052768,12,41,4,1,"is","unlikely",13062,"unlikely","is unlikely","high"
"443702e035e643f56083811a59dedbef55fc32f7bbff19543875d8730fda6202",1456169650404,1,86,8,6,"is_probably","likely",17068,"likely","is_probably likely","low"
"443702e035e643f56083811a59dedbef55fc32f7bbff19543875d8730fda6202",1456169663326,2,103,10,3,"is","unlikely",12920,"unlikely","is unlikely","none"
"443702e035e643f56083811a59dedbef55fc32f7bbff19543875d8730fda6202",1456169670126,3,43,4,3,"is_probably","likely",6799,"likely","is_probably likely","high"
"443702e035e643f56083811a59dedbef55fc32f7bbff19543875d8730fda6202",1456169680425,4,105,10,5,"is","possible",10299,"possible","is possible","none"
"443702e035e643f56083811a59dedbef55fc32f7bbff19543875d8730fda6202",1456169687952,5,82,8,2,"is","unlikely",7526,"unlikely","is unlikely","low"
"443702e035e643f56083811a59dedbef55fc32f7bbff19543875d8730fda6202",1456169701311,6,102,10,2,"is_probably","unlikely",13358,"unlikely","is_probably unlikely","none"
"443702e035e643f56083811a59dedbef55fc32f7bbff19543875d8730fda6202",1456169708300,7,41,4,1,"is","unlikely",6988,"unlikely","is unlikely","high"
"443702e035e643f56083811a59dedbef55fc32f7bbff19543875d8730fda6202",1456169717066,8,22,2,2,"might_be","probable",8765,"likely","might_be likely","high"
"443702e035e643f56083811a59dedbef55fc32f7bbff19543875d8730fda6202",1456169724801,9,107,10,7,"is","likely",7734,"likely","is likely","none"
"443702e035e643f56083811a59dedbef55fc32f7bbff19543875d8730fda6202",1456169731545,10,80,8,0,"is","unlikely",6742,"unlikely","is unlikely","low"
"443702e035e643f56083811a59dedbef55fc32f7bbff19543875d8730fda6202",1456169737247,11,42,4,2,"is","possible",5701,"possible","is possible","high"
"443702e035e643f56083811a59dedbef55fc32f7bbff19543875d8730fda6202",1456169744799,12,88,8,8,"is","probable",7551,"likely","is likely","low"
"7b4fce2bc4466363ed0190beba67635ee5af14bb0feb0b8ad9036e62fabf4806",1455767769245,1,105,10,5,"is_certainly","likely",22122,"likely","is_certainly likely","none"
"7b4fce2bc4466363ed0190beba67635ee5af14bb0feb0b8ad9036e62fabf4806",1455767782187,2,107,10,7,"is_certainly","likely",12937,"likely","is_certainly likely","none"
"7b4fce2bc4466363ed0190beba67635ee5af14bb0feb0b8ad9036e62fabf4806",1455767792808,3,84,8,4,"might_be","possible",10616,"possible","might_be possible","low"
"7b4fce2bc4466363ed0190beba67635ee5af14bb0feb0b8ad9036e62fabf4806",1455767806140,4,80,8,0,"is_certainly","unlikely",13327,"unlikely","is_certainly unlikely","low"
"7b4fce2bc4466363ed0190beba67635ee5af14bb0feb0b8ad9036e62fabf4806",1455767813920,5,88,8,8,"is_certainly","likely",7775,"likely","is_certainly likely","low"
"7b4fce2bc4466363ed0190beba67635ee5af14bb0feb0b8ad9036e62fabf4806",1455767823935,6,102,10,2,"is_probably","unlikely",10007,"unlikely","is_probably unlikely","none"
"7b4fce2bc4466363ed0190beba67635ee5af14bb0feb0b8ad9036e62fabf4806",1455767840045,7,82,8,2,"might_be","unlikely",16104,"unlikely","might_be unlikely","low"
"7b4fce2bc4466363ed0190beba67635ee5af14bb0feb0b8ad9036e62fabf4806",1455767856457,8,103,10,3,"is_probably","unlikely",16408,"unlikely","is_probably unlikely","none"
"7b4fce2bc4466363ed0190beba67635ee5af14bb0feb0b8ad9036e62fabf4806",1455767866837,9,20,2,0,"might_be","possible",10376,"possible","might_be possible","high"
"7b4fce2bc4466363ed0190beba67635ee5af14bb0feb0b8ad9036e62fabf4806",1455767880562,10,42,4,2,"is_certainly","unlikely",13716,"unlikely","is_certainly unlikely","high"
"7b4fce2bc4466363ed0190beba67635ee5af14bb0feb0b8ad9036e62fabf4806",1455767888649,11,108,10,8,"is_certainly","likely",8068,"likely","is_certainly likely","none"
"7b4fce2bc4466363ed0190beba67635ee5af14bb0feb0b8ad9036e62fabf4806",1455767898451,12,86,8,6,"is_probably","likely",9797,"likely","is_probably likely","low"
"31c02b5628f329665e2bb5525e17286e70eb822a85862bc7652d5d3a2715fcbb",1456267040499,1,20,2,0,"is","probable",4978,"likely","is likely","high"
"31c02b5628f329665e2bb5525e17286e70eb822a85862bc7652d5d3a2715fcbb",1456267053988,2,80,8,0,"is_certainly","likely",13487,"likely","is_certainly likely","low"
"31c02b5628f329665e2bb5525e17286e70eb822a85862bc7652d5d3a2715fcbb",1456267060907,3,88,8,8,"is","unlikely",6916,"unlikely","is unlikely","low"
"31c02b5628f329665e2bb5525e17286e70eb822a85862bc7652d5d3a2715fcbb",1456267069742,4,86,8,6,"is_probably","unlikely",8832,"unlikely","is_probably unlikely","low"
"31c02b5628f329665e2bb5525e17286e70eb822a85862bc7652d5d3a2715fcbb",1456267076302,5,43,4,3,"is","probable",6560,"likely","is likely","high"
"31c02b5628f329665e2bb5525e17286e70eb822a85862bc7652d5d3a2715fcbb",1456267079862,6,42,4,2,"is","probable",3559,"likely","is likely","high"
"31c02b5628f329665e2bb5525e17286e70eb822a85862bc7652d5d3a2715fcbb",1456267088718,7,107,10,7,"is_probably","unlikely",8855,"unlikely","is_probably unlikely","none"
"31c02b5628f329665e2bb5525e17286e70eb822a85862bc7652d5d3a2715fcbb",1456267092990,8,105,10,5,"is_probably","unlikely",4271,"unlikely","is_probably unlikely","none"
"31c02b5628f329665e2bb5525e17286e70eb822a85862bc7652d5d3a2715fcbb",1456267100294,9,22,2,2,"is_probably","possible",7303,"possible","is_probably possible","high"
"31c02b5628f329665e2bb5525e17286e70eb822a85862bc7652d5d3a2715fcbb",1456267106887,10,102,10,2,"is_certainly","probable",6592,"likely","is_certainly likely","none"
"31c02b5628f329665e2bb5525e17286e70eb822a85862bc7652d5d3a2715fcbb",1456267110246,11,103,10,3,"is_probably","probable",3358,"likely","is_probably likely","none"
"31c02b5628f329665e2bb5525e17286e70eb822a85862bc7652d5d3a2715fcbb",1456267117038,12,41,4,1,"is","probable",6791,"likely","is likely","high"
"170f202301086558a86dfb978245c575f6b7ddef531930a6ebd1721ab9c1fc55",1456261305496,1,108,10,8,"is_certainly","probable",14655,"likely","is_certainly likely","none"
"170f202301086558a86dfb978245c575f6b7ddef531930a6ebd1721ab9c1fc55",1456261314167,2,105,10,5,"is","possible",8670,"possible","is possible","none"
"170f202301086558a86dfb978245c575f6b7ddef531930a6ebd1721ab9c1fc55",1456261325295,3,82,8,2,"is_certainly","unlikely",11127,"unlikely","is_certainly unlikely","low"
"170f202301086558a86dfb978245c575f6b7ddef531930a6ebd1721ab9c1fc55",1456261339745,4,102,10,2,"is","unlikely",14448,"unlikely","is unlikely","none"
"170f202301086558a86dfb978245c575f6b7ddef531930a6ebd1721ab9c1fc55",1456261347095,5,84,8,4,"might_be","possible",7345,"possible","might_be possible","low"
"170f202301086558a86dfb978245c575f6b7ddef531930a6ebd1721ab9c1fc55",1456261356360,6,80,8,0,"is_certainly","unlikely",9262,"unlikely","is_certainly unlikely","low"
"170f202301086558a86dfb978245c575f6b7ddef531930a6ebd1721ab9c1fc55",1456261362984,7,107,10,7,"is_certainly","probable",6622,"likely","is_certainly likely","none"
"170f202301086558a86dfb978245c575f6b7ddef531930a6ebd1721ab9c1fc55",1456261387560,8,43,4,3,"is_probably","possible",24574,"possible","is_probably possible","high"
"170f202301086558a86dfb978245c575f6b7ddef531930a6ebd1721ab9c1fc55",1456261392495,9,88,8,8,"is_certainly","probable",4934,"likely","is_certainly likely","low"
"170f202301086558a86dfb978245c575f6b7ddef531930a6ebd1721ab9c1fc55",1456261406616,10,22,2,2,"might_be","possible",14118,"possible","might_be possible","high"
"170f202301086558a86dfb978245c575f6b7ddef531930a6ebd1721ab9c1fc55",1456261416504,11,41,4,1,"is","possible",9884,"possible","is possible","high"
"170f202301086558a86dfb978245c575f6b7ddef531930a6ebd1721ab9c1fc55",1456261423248,12,42,4,2,"might_be","probable",6743,"likely","might_be likely","high"
"724736cf1c145da796eebc58afb21c3ca298747f256b510e02a0a110213fd0a3",1456169710090,1,41,4,1,"is_probably","unlikely",30415,"unlikely","is_probably unlikely","high"
"724736cf1c145da796eebc58afb21c3ca298747f256b510e02a0a110213fd0a3",1456169721593,2,107,10,7,"is_certainly","likely",11499,"likely","is_certainly likely","none"
"724736cf1c145da796eebc58afb21c3ca298747f256b510e02a0a110213fd0a3",1456169738828,3,82,8,2,"is_certainly","unlikely",17234,"unlikely","is_certainly unlikely","low"
"724736cf1c145da796eebc58afb21c3ca298747f256b510e02a0a110213fd0a3",1456169767318,4,105,10,5,"is","possible",28489,"possible","is possible","none"
"724736cf1c145da796eebc58afb21c3ca298747f256b510e02a0a110213fd0a3",1456169784559,5,20,2,0,"might_be","possible",17239,"possible","might_be possible","high"
"724736cf1c145da796eebc58afb21c3ca298747f256b510e02a0a110213fd0a3",1456169798813,6,84,8,4,"might_be","possible",14253,"possible","might_be possible","low"
"724736cf1c145da796eebc58afb21c3ca298747f256b510e02a0a110213fd0a3",1456169810270,7,102,10,2,"is_certainly","unlikely",11455,"unlikely","is_certainly unlikely","none"
"724736cf1c145da796eebc58afb21c3ca298747f256b510e02a0a110213fd0a3",1456169825083,8,43,4,3,"might_be","probable",14812,"likely","might_be likely","high"
"724736cf1c145da796eebc58afb21c3ca298747f256b510e02a0a110213fd0a3",1456169839633,9,22,2,2,"is","possible",14548,"possible","is possible","high"
"724736cf1c145da796eebc58afb21c3ca298747f256b510e02a0a110213fd0a3",1456169847773,10,42,4,2,"might_be","possible",8139,"possible","might_be possible","high"
"724736cf1c145da796eebc58afb21c3ca298747f256b510e02a0a110213fd0a3",1456169853229,11,108,10,8,"is_certainly","likely",5454,"likely","is_certainly likely","none"
"724736cf1c145da796eebc58afb21c3ca298747f256b510e02a0a110213fd0a3",1456169860384,12,80,8,0,"is_certainly","unlikely",7153,"unlikely","is_certainly unlikely","low"
"b91beb2df325ba1745b87a8300c4f1a3a2dba129dc730970ade96ac7b0f00a97",1456189851519,1,107,10,7,"is_probably","likely",13658,"likely","is_probably likely","none"
"b91beb2df325ba1745b87a8300c4f1a3a2dba129dc730970ade96ac7b0f00a97",1456189860175,2,41,4,1,"is_probably","unlikely",8655,"unlikely","is_probably unlikely","high"
"b91beb2df325ba1745b87a8300c4f1a3a2dba129dc730970ade96ac7b0f00a97",1456189870311,3,82,8,2,"is_probably","unlikely",10135,"unlikely","is_probably unlikely","low"
"b91beb2df325ba1745b87a8300c4f1a3a2dba129dc730970ade96ac7b0f00a97",1456189878007,4,102,10,2,"is_certainly","unlikely",7695,"unlikely","is_certainly unlikely","none"
"b91beb2df325ba1745b87a8300c4f1a3a2dba129dc730970ade96ac7b0f00a97",1456189884808,5,86,8,6,"is_probably","likely",6799,"likely","is_probably likely","low"
"b91beb2df325ba1745b87a8300c4f1a3a2dba129dc730970ade96ac7b0f00a97",1456189904183,6,108,10,8,"is_certainly","likely",19375,"likely","is_certainly likely","none"
"b91beb2df325ba1745b87a8300c4f1a3a2dba129dc730970ade96ac7b0f00a97",1456189910456,7,20,2,0,"might_be","possible",6272,"possible","might_be possible","high"
"b91beb2df325ba1745b87a8300c4f1a3a2dba129dc730970ade96ac7b0f00a97",1456189913759,8,22,2,2,"might_be","possible",3303,"possible","might_be possible","high"
"b91beb2df325ba1745b87a8300c4f1a3a2dba129dc730970ade96ac7b0f00a97",1456189920039,9,105,10,5,"might_be","possible",6279,"possible","might_be possible","none"
"b91beb2df325ba1745b87a8300c4f1a3a2dba129dc730970ade96ac7b0f00a97",1456189924658,10,42,4,2,"might_be","possible",4618,"possible","might_be possible","high"
"b91beb2df325ba1745b87a8300c4f1a3a2dba129dc730970ade96ac7b0f00a97",1456189932727,11,88,8,8,"is_certainly","likely",8068,"likely","is_certainly likely","low"
"b91beb2df325ba1745b87a8300c4f1a3a2dba129dc730970ade96ac7b0f00a97",1456189937575,12,84,8,4,"is_probably","likely",4845,"likely","is_probably likely","low"
"c3cb269ecad7cc6c1af9b801a603c8c036b89ea14b3471f74f25d2331f585560",1456260414822,1,88,8,8,"might_be","likely",11547,"likely","might_be likely","low"
"c3cb269ecad7cc6c1af9b801a603c8c036b89ea14b3471f74f25d2331f585560",1456260421598,2,107,10,7,"is_probably","possible",6773,"possible","is_probably possible","none"
"c3cb269ecad7cc6c1af9b801a603c8c036b89ea14b3471f74f25d2331f585560",1456260427655,3,22,2,2,"is_probably","possible",6055,"possible","is_probably possible","high"
"c3cb269ecad7cc6c1af9b801a603c8c036b89ea14b3471f74f25d2331f585560",1456260435396,4,80,8,0,"might_be","unlikely",7738,"unlikely","might_be unlikely","low"
"c3cb269ecad7cc6c1af9b801a603c8c036b89ea14b3471f74f25d2331f585560",1456260441697,5,82,8,2,"is_probably","unlikely",6300,"unlikely","is_probably unlikely","low"
"c3cb269ecad7cc6c1af9b801a603c8c036b89ea14b3471f74f25d2331f585560",1456260446626,6,43,4,3,"is_probably","possible",4927,"possible","is_probably possible","high"
"c3cb269ecad7cc6c1af9b801a603c8c036b89ea14b3471f74f25d2331f585560",1456260452823,7,84,8,4,"is_probably","possible",6195,"possible","is_probably possible","low"
"c3cb269ecad7cc6c1af9b801a603c8c036b89ea14b3471f74f25d2331f585560",1456260459985,8,20,2,0,"might_be","unlikely",7160,"unlikely","might_be unlikely","high"
"c3cb269ecad7cc6c1af9b801a603c8c036b89ea14b3471f74f25d2331f585560",1456260465288,9,86,8,6,"is_probably","possible",5301,"possible","is_probably possible","low"
"c3cb269ecad7cc6c1af9b801a603c8c036b89ea14b3471f74f25d2331f585560",1456260472455,10,102,10,2,"is_probably","unlikely",7164,"unlikely","is_probably unlikely","none"
"c3cb269ecad7cc6c1af9b801a603c8c036b89ea14b3471f74f25d2331f585560",1456260487123,11,108,10,8,"might_be","possible",14665,"possible","might_be possible","none"
"c3cb269ecad7cc6c1af9b801a603c8c036b89ea14b3471f74f25d2331f585560",1456260491139,12,105,10,5,"might_be","possible",4014,"possible","might_be possible","none"
"73e8ba2287af2e2d0306ea83eccc5ba3ca6f32ad95a5420e33438f4ec5445069",1456263295908,1,88,8,8,"is_certainly","likely",19830,"likely","is_certainly likely","low"
"73e8ba2287af2e2d0306ea83eccc5ba3ca6f32ad95a5420e33438f4ec5445069",1456263316789,2,80,8,0,"is_certainly","unlikely",20877,"unlikely","is_certainly unlikely","low"
"73e8ba2287af2e2d0306ea83eccc5ba3ca6f32ad95a5420e33438f4ec5445069",1456263323739,3,22,2,2,"is","unlikely",6943,"unlikely","is unlikely","high"
"73e8ba2287af2e2d0306ea83eccc5ba3ca6f32ad95a5420e33438f4ec5445069",1456263337898,4,41,4,1,"is","possible",14156,"possible","is possible","high"
"73e8ba2287af2e2d0306ea83eccc5ba3ca6f32ad95a5420e33438f4ec5445069",1456263344178,5,82,8,2,"is","unlikely",6277,"unlikely","is unlikely","low"
"73e8ba2287af2e2d0306ea83eccc5ba3ca6f32ad95a5420e33438f4ec5445069",1456263350622,6,43,4,3,"is","possible",6440,"possible","is possible","high"
"73e8ba2287af2e2d0306ea83eccc5ba3ca6f32ad95a5420e33438f4ec5445069",1456263356843,7,84,8,4,"is","possible",6217,"possible","is possible","low"
"73e8ba2287af2e2d0306ea83eccc5ba3ca6f32ad95a5420e33438f4ec5445069",1456263373020,8,105,10,5,"is","possible",16174,"possible","is possible","none"
"73e8ba2287af2e2d0306ea83eccc5ba3ca6f32ad95a5420e33438f4ec5445069",1456263385731,9,107,10,7,"is","likely",12708,"likely","is likely","none"
"73e8ba2287af2e2d0306ea83eccc5ba3ca6f32ad95a5420e33438f4ec5445069",1456263392690,10,20,2,0,"is","possible",6955,"possible","is possible","high"
"73e8ba2287af2e2d0306ea83eccc5ba3ca6f32ad95a5420e33438f4ec5445069",1456263398708,11,42,4,2,"is","possible",6014,"possible","is possible","high"
"73e8ba2287af2e2d0306ea83eccc5ba3ca6f32ad95a5420e33438f4ec5445069",1456263406418,12,86,8,6,"is","probable",7707,"likely","is likely","low"
"3b2468f8ffa2214970b4039d8313ada66a600f66811ae5ee50dd0f0547b4bff2",1456261792661,1,43,4,3,"might_be","probable",61656,"likely","might_be likely","high"
"3b2468f8ffa2214970b4039d8313ada66a600f66811ae5ee50dd0f0547b4bff2",1456261810569,2,88,8,8,"is","probable",17903,"likely","is likely","low"
"3b2468f8ffa2214970b4039d8313ada66a600f66811ae5ee50dd0f0547b4bff2",1456261828637,3,108,10,8,"is","probable",18064,"likely","is likely","none"
"3b2468f8ffa2214970b4039d8313ada66a600f66811ae5ee50dd0f0547b4bff2",1456261848028,4,41,4,1,"might_be","unlikely",19376,"unlikely","might_be unlikely","high"
"3b2468f8ffa2214970b4039d8313ada66a600f66811ae5ee50dd0f0547b4bff2",1456261871809,5,42,4,2,"might_be","likely",23776,"likely","might_be likely","high"
"3b2468f8ffa2214970b4039d8313ada66a600f66811ae5ee50dd0f0547b4bff2",1456261926021,6,105,10,5,"might_be","likely",54205,"likely","might_be likely","none"
"3b2468f8ffa2214970b4039d8313ada66a600f66811ae5ee50dd0f0547b4bff2",1456261942588,7,20,2,0,"might_be","unlikely",16561,"unlikely","might_be unlikely","high"
"3b2468f8ffa2214970b4039d8313ada66a600f66811ae5ee50dd0f0547b4bff2",1456261953611,8,107,10,7,"is","probable",11018,"likely","is likely","none"
"3b2468f8ffa2214970b4039d8313ada66a600f66811ae5ee50dd0f0547b4bff2",1456261970130,9,80,8,0,"is","unlikely",16514,"unlikely","is unlikely","low"
"3b2468f8ffa2214970b4039d8313ada66a600f66811ae5ee50dd0f0547b4bff2",1456261980786,10,103,10,3,"is","unlikely",10651,"unlikely","is unlikely","none"
"3b2468f8ffa2214970b4039d8313ada66a600f66811ae5ee50dd0f0547b4bff2",1456261992928,11,86,8,6,"is","probable",12138,"likely","is likely","low"
"3b2468f8ffa2214970b4039d8313ada66a600f66811ae5ee50dd0f0547b4bff2",1456262005408,12,22,2,2,"might_be","probable",12476,"likely","might_be likely","high"
"21417840c239c9a6f15ab5af153fbf57bae678c42cd76325cddd5470fa526aa4",1456268091727,1,108,10,8,"is_certainly","probable",23856,"likely","is_certainly likely","none"
"21417840c239c9a6f15ab5af153fbf57bae678c42cd76325cddd5470fa526aa4",1456268118974,2,42,4,2,"might_be","possible",27235,"possible","might_be possible","high"
"21417840c239c9a6f15ab5af153fbf57bae678c42cd76325cddd5470fa526aa4",1456268145563,3,105,10,5,"is","possible",26579,"possible","is possible","none"
"21417840c239c9a6f15ab5af153fbf57bae678c42cd76325cddd5470fa526aa4",1456268175682,4,41,4,1,"is","unlikely",30106,"unlikely","is unlikely","high"
"21417840c239c9a6f15ab5af153fbf57bae678c42cd76325cddd5470fa526aa4",1456268187775,5,103,10,3,"is","unlikely",12082,"unlikely","is unlikely","none"
"21417840c239c9a6f15ab5af153fbf57bae678c42cd76325cddd5470fa526aa4",1456268201515,6,88,8,8,"is_certainly","likely",13728,"likely","is_certainly likely","low"
"21417840c239c9a6f15ab5af153fbf57bae678c42cd76325cddd5470fa526aa4",1456268213008,7,22,2,2,"might_be","possible",11481,"possible","might_be possible","high"
"21417840c239c9a6f15ab5af153fbf57bae678c42cd76325cddd5470fa526aa4",1456268225687,8,86,8,6,"is_probably","likely",12670,"likely","is_probably likely","low"
"21417840c239c9a6f15ab5af153fbf57bae678c42cd76325cddd5470fa526aa4",1456268237648,9,102,10,2,"is","unlikely",11951,"unlikely","is unlikely","none"
"21417840c239c9a6f15ab5af153fbf57bae678c42cd76325cddd5470fa526aa4",1456268275773,10,43,4,3,"is","possible",38117,"possible","is possible","high"
"21417840c239c9a6f15ab5af153fbf57bae678c42cd76325cddd5470fa526aa4",1456268283579,11,84,8,4,"is","possible",7791,"possible","is possible","low"
"21417840c239c9a6f15ab5af153fbf57bae678c42cd76325cddd5470fa526aa4",1456268295950,12,107,10,7,"is_certainly","probable",12362,"likely","is_certainly likely","none"
"adb39b9e0cba7af47ed01b5ebee972ed9a14a632c05957bd34ef442761e6f6c7",1456171636987,1,105,10,5,"is","probable",6061,"likely","is likely","none"
"adb39b9e0cba7af47ed01b5ebee972ed9a14a632c05957bd34ef442761e6f6c7",1456171642548,2,102,10,2,"is","possible",5548,"possible","is possible","none"
"adb39b9e0cba7af47ed01b5ebee972ed9a14a632c05957bd34ef442761e6f6c7",1456171647868,3,43,4,3,"is_probably","probable",5309,"likely","is_probably likely","high"
"adb39b9e0cba7af47ed01b5ebee972ed9a14a632c05957bd34ef442761e6f6c7",1456171655373,4,108,10,8,"is_certainly","unlikely",7494,"unlikely","is_certainly unlikely","none"
"adb39b9e0cba7af47ed01b5ebee972ed9a14a632c05957bd34ef442761e6f6c7",1456171661237,5,82,8,2,"is_probably","probable",5852,"likely","is_probably likely","low"
"adb39b9e0cba7af47ed01b5ebee972ed9a14a632c05957bd34ef442761e6f6c7",1456171666704,6,22,2,2,"might_be","possible",5456,"possible","might_be possible","high"
"adb39b9e0cba7af47ed01b5ebee972ed9a14a632c05957bd34ef442761e6f6c7",1456171670310,7,103,10,3,"is_probably","probable",3597,"likely","is_probably likely","none"
"adb39b9e0cba7af47ed01b5ebee972ed9a14a632c05957bd34ef442761e6f6c7",1456171677327,8,86,8,6,"might_be","unlikely",7005,"unlikely","might_be unlikely","low"
"adb39b9e0cba7af47ed01b5ebee972ed9a14a632c05957bd34ef442761e6f6c7",1456171684927,9,88,8,8,"is_certainly","unlikely",7590,"unlikely","is_certainly unlikely","low"
"adb39b9e0cba7af47ed01b5ebee972ed9a14a632c05957bd34ef442761e6f6c7",1456171688817,10,20,2,0,"is_probably","probable",3879,"likely","is_probably likely","high"
"adb39b9e0cba7af47ed01b5ebee972ed9a14a632c05957bd34ef442761e6f6c7",1456171692840,11,41,4,1,"is_probably","possible",4009,"possible","is_probably possible","high"
"adb39b9e0cba7af47ed01b5ebee972ed9a14a632c05957bd34ef442761e6f6c7",1456171697662,12,42,4,2,"is","possible",4806,"possible","is possible","high"
"5975fa72f98b84da2b7ef835cab16bfc88593fc0c2d4c1d063ff749655d3c173",1456259639073,1,88,8,8,"is_probably","likely",23267,"likely","is_probably likely","low"
"5975fa72f98b84da2b7ef835cab16bfc88593fc0c2d4c1d063ff749655d3c173",1456259658544,2,82,8,2,"is","unlikely",19469,"unlikely","is unlikely","low"
"5975fa72f98b84da2b7ef835cab16bfc88593fc0c2d4c1d063ff749655d3c173",1456259666933,3,20,2,0,"might_be","possible",8386,"possible","might_be possible","high"
"5975fa72f98b84da2b7ef835cab16bfc88593fc0c2d4c1d063ff749655d3c173",1456259680153,4,86,8,6,"is","likely",13217,"likely","is likely","low"
"5975fa72f98b84da2b7ef835cab16bfc88593fc0c2d4c1d063ff749655d3c173",1456259689632,5,80,8,0,"is","unlikely",9477,"unlikely","is unlikely","low"
"5975fa72f98b84da2b7ef835cab16bfc88593fc0c2d4c1d063ff749655d3c173",1456259706413,6,43,4,3,"might_be","possible",16778,"possible","might_be possible","high"
"5975fa72f98b84da2b7ef835cab16bfc88593fc0c2d4c1d063ff749655d3c173",1456259714885,7,102,10,2,"is","unlikely",8469,"unlikely","is unlikely","none"
"5975fa72f98b84da2b7ef835cab16bfc88593fc0c2d4c1d063ff749655d3c173",1456259720647,8,42,4,2,"might_be","possible",5760,"possible","might_be possible","high"
"5975fa72f98b84da2b7ef835cab16bfc88593fc0c2d4c1d063ff749655d3c173",1456259732144,9,107,10,7,"is","probable",11495,"likely","is likely","none"
"5975fa72f98b84da2b7ef835cab16bfc88593fc0c2d4c1d063ff749655d3c173",1456259747189,10,103,10,3,"is_probably","unlikely",15043,"unlikely","is_probably unlikely","none"
"5975fa72f98b84da2b7ef835cab16bfc88593fc0c2d4c1d063ff749655d3c173",1456259770662,11,41,4,1,"is_probably","unlikely",23470,"unlikely","is_probably unlikely","high"
"5975fa72f98b84da2b7ef835cab16bfc88593fc0c2d4c1d063ff749655d3c173",1456259776893,12,108,10,8,"is","likely",6228,"likely","is likely","none"
"d519f9ff9a3b453c2d1712db2bcaab7a94dc1d3d968233bff5d74d2184ddc421",1456172560236,1,108,10,8,"is_certainly","probable",17393,"likely","is_certainly likely","none"
"d519f9ff9a3b453c2d1712db2bcaab7a94dc1d3d968233bff5d74d2184ddc421",1456172572524,2,22,2,2,"is","possible",12280,"possible","is possible","high"
"d519f9ff9a3b453c2d1712db2bcaab7a94dc1d3d968233bff5d74d2184ddc421",1456172579395,3,107,10,7,"is_probably","likely",6865,"likely","is_probably likely","none"
"d519f9ff9a3b453c2d1712db2bcaab7a94dc1d3d968233bff5d74d2184ddc421",1456172593398,4,43,4,3,"is_certainly","possible",13994,"possible","is_certainly possible","high"
"d519f9ff9a3b453c2d1712db2bcaab7a94dc1d3d968233bff5d74d2184ddc421",1456172597947,5,88,8,8,"is_certainly","probable",4543,"likely","is_certainly likely","low"
"d519f9ff9a3b453c2d1712db2bcaab7a94dc1d3d968233bff5d74d2184ddc421",1456172605608,6,103,10,3,"is","unlikely",7650,"unlikely","is unlikely","none"
"d519f9ff9a3b453c2d1712db2bcaab7a94dc1d3d968233bff5d74d2184ddc421",1456172615201,7,42,4,2,"might_be","possible",9585,"possible","might_be possible","high"
"d519f9ff9a3b453c2d1712db2bcaab7a94dc1d3d968233bff5d74d2184ddc421",1456172626121,8,82,8,2,"is_probably","unlikely",10912,"unlikely","is_probably unlikely","low"
"d519f9ff9a3b453c2d1712db2bcaab7a94dc1d3d968233bff5d74d2184ddc421",1456172631183,9,41,4,1,"is_probably","unlikely",5055,"unlikely","is_probably unlikely","high"
"d519f9ff9a3b453c2d1712db2bcaab7a94dc1d3d968233bff5d74d2184ddc421",1456172639342,10,105,10,5,"is_certainly","possible",8144,"possible","is_certainly possible","none"
"d519f9ff9a3b453c2d1712db2bcaab7a94dc1d3d968233bff5d74d2184ddc421",1456172645496,11,86,8,6,"is_probably","likely",6144,"likely","is_probably likely","low"
"d519f9ff9a3b453c2d1712db2bcaab7a94dc1d3d968233bff5d74d2184ddc421",1456172653504,12,102,10,2,"is","unlikely",8000,"unlikely","is unlikely","none"
"0131e7667eecf0aec40ab15337098ff96fc2be118d378d4e0501c3a501ce87e1",1456210187768,1,20,2,0,"might_be","possible",30584,"possible","might_be possible","high"
"0131e7667eecf0aec40ab15337098ff96fc2be118d378d4e0501c3a501ce87e1",1456210201609,2,84,8,4,"might_be","probable",13838,"likely","might_be likely","low"
"0131e7667eecf0aec40ab15337098ff96fc2be118d378d4e0501c3a501ce87e1",1456210215279,3,43,4,3,"is","likely",13667,"likely","is likely","high"
"0131e7667eecf0aec40ab15337098ff96fc2be118d378d4e0501c3a501ce87e1",1456210224243,4,107,10,7,"is","likely",8963,"likely","is likely","none"
"0131e7667eecf0aec40ab15337098ff96fc2be118d378d4e0501c3a501ce87e1",1456210236488,5,42,4,2,"might_be","probable",12242,"likely","might_be likely","high"
"0131e7667eecf0aec40ab15337098ff96fc2be118d378d4e0501c3a501ce87e1",1456210248313,6,41,4,1,"is_probably","unlikely",11822,"unlikely","is_probably unlikely","high"
"0131e7667eecf0aec40ab15337098ff96fc2be118d378d4e0501c3a501ce87e1",1456210265817,7,105,10,5,"might_be","probable",17503,"likely","might_be likely","none"
"0131e7667eecf0aec40ab15337098ff96fc2be118d378d4e0501c3a501ce87e1",1456210275952,8,108,10,8,"is_probably","likely",10132,"likely","is_probably likely","none"
"0131e7667eecf0aec40ab15337098ff96fc2be118d378d4e0501c3a501ce87e1",1456210281856,9,22,2,2,"might_be","possible",5903,"possible","might_be possible","high"
"0131e7667eecf0aec40ab15337098ff96fc2be118d378d4e0501c3a501ce87e1",1456210288208,10,82,8,2,"is_probably","unlikely",6352,"unlikely","is_probably unlikely","low"
"0131e7667eecf0aec40ab15337098ff96fc2be118d378d4e0501c3a501ce87e1",1456210304833,11,88,8,8,"is_probably","likely",16624,"likely","is_probably likely","low"
"0131e7667eecf0aec40ab15337098ff96fc2be118d378d4e0501c3a501ce87e1",1456210312529,12,103,10,3,"is_probably","unlikely",7693,"unlikely","is_probably unlikely","none"
"436dc3c4c99b42c7cab684a650d0704982b064dc592a442ea4cec96da4dd6798",1455721381869,1,80,8,0,"is","probable",27344,"likely","is likely","low"
"436dc3c4c99b42c7cab684a650d0704982b064dc592a442ea4cec96da4dd6798",1455721403891,2,82,8,2,"is_probably","unlikely",22020,"unlikely","is_probably unlikely","low"
"436dc3c4c99b42c7cab684a650d0704982b064dc592a442ea4cec96da4dd6798",1455721418947,3,88,8,8,"might_be","possible",15054,"possible","might_be possible","low"
"436dc3c4c99b42c7cab684a650d0704982b064dc592a442ea4cec96da4dd6798",1455721428644,4,84,8,4,"might_be","possible",9694,"possible","might_be possible","low"
"436dc3c4c99b42c7cab684a650d0704982b064dc592a442ea4cec96da4dd6798",1455721451892,5,86,8,6,"is","probable",23245,"likely","is likely","low"
"436dc3c4c99b42c7cab684a650d0704982b064dc592a442ea4cec96da4dd6798",1455721675965,6,20,2,0,"might_be","possible",224066,"possible","might_be possible","high"
"436dc3c4c99b42c7cab684a650d0704982b064dc592a442ea4cec96da4dd6798",1455721691812,7,42,4,2,"might_be","possible",15841,"possible","might_be possible","high"
"436dc3c4c99b42c7cab684a650d0704982b064dc592a442ea4cec96da4dd6798",1455721707235,8,41,4,1,"is_probably","possible",15419,"possible","is_probably possible","high"
"436dc3c4c99b42c7cab684a650d0704982b064dc592a442ea4cec96da4dd6798",1455721732764,9,107,10,7,"is_probably","likely",25527,"likely","is_probably likely","none"
"436dc3c4c99b42c7cab684a650d0704982b064dc592a442ea4cec96da4dd6798",1455721747108,10,108,10,8,"is_probably","likely",14342,"likely","is_probably likely","none"
"436dc3c4c99b42c7cab684a650d0704982b064dc592a442ea4cec96da4dd6798",1455721762589,11,102,10,2,"is_probably","unlikely",15479,"unlikely","is_probably unlikely","none"
"436dc3c4c99b42c7cab684a650d0704982b064dc592a442ea4cec96da4dd6798",1455721770268,12,105,10,5,"is","possible",7677,"possible","is possible","none"
"028073c29f1975d539a4846d2770e81f12536b91b22a783f7ee5a4189c01ab4b",1456259627273,1,20,2,0,"is","unlikely",16070,"unlikely","is unlikely","high"
"028073c29f1975d539a4846d2770e81f12536b91b22a783f7ee5a4189c01ab4b",1456259638281,2,43,4,3,"is","likely",11008,"likely","is likely","high"
"028073c29f1975d539a4846d2770e81f12536b91b22a783f7ee5a4189c01ab4b",1456259650417,3,105,10,5,"might_be","possible",12136,"possible","might_be possible","none"
"028073c29f1975d539a4846d2770e81f12536b91b22a783f7ee5a4189c01ab4b",1456259659649,4,86,8,6,"is","likely",9232,"likely","is likely","low"
"028073c29f1975d539a4846d2770e81f12536b91b22a783f7ee5a4189c01ab4b",1456259672930,5,22,2,2,"is","possible",13280,"possible","is possible","high"
"028073c29f1975d539a4846d2770e81f12536b91b22a783f7ee5a4189c01ab4b",1456259680576,6,88,8,8,"is_certainly","likely",7644,"likely","is_certainly likely","low"
"028073c29f1975d539a4846d2770e81f12536b91b22a783f7ee5a4189c01ab4b",1456259690048,7,102,10,2,"is","unlikely",9472,"unlikely","is unlikely","none"
"028073c29f1975d539a4846d2770e81f12536b91b22a783f7ee5a4189c01ab4b",1456259699960,8,41,4,1,"is","unlikely",9912,"unlikely","is unlikely","high"
"028073c29f1975d539a4846d2770e81f12536b91b22a783f7ee5a4189c01ab4b",1456259707416,9,108,10,8,"is","unlikely",7456,"unlikely","is unlikely","none"
"028073c29f1975d539a4846d2770e81f12536b91b22a783f7ee5a4189c01ab4b",1456259716632,10,82,8,2,"is","unlikely",9216,"unlikely","is unlikely","low"
"028073c29f1975d539a4846d2770e81f12536b91b22a783f7ee5a4189c01ab4b",1456259731736,11,107,10,7,"is","likely",15104,"likely","is likely","none"
"028073c29f1975d539a4846d2770e81f12536b91b22a783f7ee5a4189c01ab4b",1456259739744,12,80,8,0,"is","unlikely",8008,"unlikely","is unlikely","low"
"9e7ac47f54f333fbb3365cb00a35d61635559a819c1230c8dcd4cebe3c91eb45",1456259914901,1,84,8,4,"is_probably","possible",41893,"possible","is_probably possible","low"
"9e7ac47f54f333fbb3365cb00a35d61635559a819c1230c8dcd4cebe3c91eb45",1456259949007,2,43,4,3,"is","probable",34104,"likely","is likely","high"
"9e7ac47f54f333fbb3365cb00a35d61635559a819c1230c8dcd4cebe3c91eb45",1456259964475,3,105,10,5,"is_certainly","possible",15466,"possible","is_certainly possible","none"
"9e7ac47f54f333fbb3365cb00a35d61635559a819c1230c8dcd4cebe3c91eb45",1456259976023,4,41,4,1,"is","unlikely",11545,"unlikely","is unlikely","high"
"9e7ac47f54f333fbb3365cb00a35d61635559a819c1230c8dcd4cebe3c91eb45",1456259986245,5,103,10,3,"is","unlikely",10220,"unlikely","is unlikely","none"
"9e7ac47f54f333fbb3365cb00a35d61635559a819c1230c8dcd4cebe3c91eb45",1456259999546,6,22,2,2,"is","possible",13298,"possible","is possible","high"
"9e7ac47f54f333fbb3365cb00a35d61635559a819c1230c8dcd4cebe3c91eb45",1456260006989,7,20,2,0,"is","unlikely",7441,"unlikely","is unlikely","high"
"9e7ac47f54f333fbb3365cb00a35d61635559a819c1230c8dcd4cebe3c91eb45",1456260015850,8,102,10,2,"is","possible",8857,"possible","is possible","none"
"9e7ac47f54f333fbb3365cb00a35d61635559a819c1230c8dcd4cebe3c91eb45",1456260030250,9,80,8,0,"is","unlikely",14399,"unlikely","is unlikely","low"
"9e7ac47f54f333fbb3365cb00a35d61635559a819c1230c8dcd4cebe3c91eb45",1456260037771,10,108,10,8,"is","probable",7519,"likely","is likely","none"
"9e7ac47f54f333fbb3365cb00a35d61635559a819c1230c8dcd4cebe3c91eb45",1456260044126,11,107,10,7,"is","probable",6354,"likely","is likely","none"
"9e7ac47f54f333fbb3365cb00a35d61635559a819c1230c8dcd4cebe3c91eb45",1456260051666,12,86,8,6,"is","possible",7538,"possible","is possible","low"
"ac3a0a01edea68ef92dd76cb6e8dff8c6aed69f6b5f1b31995fc6b79742793a1",1456330225314,1,103,10,3,"might_be","unlikely",23880,"unlikely","might_be unlikely","none"
"ac3a0a01edea68ef92dd76cb6e8dff8c6aed69f6b5f1b31995fc6b79742793a1",1456330238474,2,80,8,0,"is_certainly","unlikely",13157,"unlikely","is_certainly unlikely","low"
"ac3a0a01edea68ef92dd76cb6e8dff8c6aed69f6b5f1b31995fc6b79742793a1",1456330274018,3,102,10,2,"is","unlikely",35541,"unlikely","is unlikely","none"
"ac3a0a01edea68ef92dd76cb6e8dff8c6aed69f6b5f1b31995fc6b79742793a1",1456330285041,4,41,4,1,"is","unlikely",11019,"unlikely","is unlikely","high"
"ac3a0a01edea68ef92dd76cb6e8dff8c6aed69f6b5f1b31995fc6b79742793a1",1456330299699,5,108,10,8,"is_probably","likely",14656,"likely","is_probably likely","none"
"ac3a0a01edea68ef92dd76cb6e8dff8c6aed69f6b5f1b31995fc6b79742793a1",1456330309819,6,82,8,2,"is_probably","unlikely",10117,"unlikely","is_probably unlikely","low"
"ac3a0a01edea68ef92dd76cb6e8dff8c6aed69f6b5f1b31995fc6b79742793a1",1456330319227,7,107,10,7,"is_probably","likely",9400,"likely","is_probably likely","none"
"ac3a0a01edea68ef92dd76cb6e8dff8c6aed69f6b5f1b31995fc6b79742793a1",1456330330946,8,20,2,0,"is","unlikely",11717,"unlikely","is unlikely","high"
"ac3a0a01edea68ef92dd76cb6e8dff8c6aed69f6b5f1b31995fc6b79742793a1",1456330349800,9,43,4,3,"is_probably","probable",18852,"likely","is_probably likely","high"
"ac3a0a01edea68ef92dd76cb6e8dff8c6aed69f6b5f1b31995fc6b79742793a1",1456330373099,10,84,8,4,"might_be","possible",23296,"possible","might_be possible","low"
"ac3a0a01edea68ef92dd76cb6e8dff8c6aed69f6b5f1b31995fc6b79742793a1",1456330391178,11,105,10,5,"is_probably","probable",18078,"likely","is_probably likely","none"
"ac3a0a01edea68ef92dd76cb6e8dff8c6aed69f6b5f1b31995fc6b79742793a1",1456330418042,12,42,4,2,"is","probable",26858,"likely","is likely","high"
"0b2b087776dc112716295aa2e43abb0ef1d1cae6ce5e19e94410a0e0756527ef",1456265533334,1,43,4,3,"might_be","possible",12488,"possible","might_be possible","high"
"0b2b087776dc112716295aa2e43abb0ef1d1cae6ce5e19e94410a0e0756527ef",1456265542031,2,88,8,8,"is","likely",8696,"likely","is likely","low"
"0b2b087776dc112716295aa2e43abb0ef1d1cae6ce5e19e94410a0e0756527ef",1456265547716,3,86,8,6,"might_be","likely",5682,"likely","might_be likely","low"
"0b2b087776dc112716295aa2e43abb0ef1d1cae6ce5e19e94410a0e0756527ef",1456265555450,4,42,4,2,"might_be","possible",7733,"possible","might_be possible","high"
"0b2b087776dc112716295aa2e43abb0ef1d1cae6ce5e19e94410a0e0756527ef",1456265560410,5,82,8,2,"is","unlikely",4959,"unlikely","is unlikely","low"
"0b2b087776dc112716295aa2e43abb0ef1d1cae6ce5e19e94410a0e0756527ef",1456265565224,6,20,2,0,"is","unlikely",4813,"unlikely","is unlikely","high"
"0b2b087776dc112716295aa2e43abb0ef1d1cae6ce5e19e94410a0e0756527ef",1456265576192,7,84,8,4,"is","possible",10967,"possible","is possible","low"
"0b2b087776dc112716295aa2e43abb0ef1d1cae6ce5e19e94410a0e0756527ef",1456265581590,8,80,8,0,"is","unlikely",5395,"unlikely","is unlikely","low"
"0b2b087776dc112716295aa2e43abb0ef1d1cae6ce5e19e94410a0e0756527ef",1456265587894,9,105,10,5,"is","possible",6303,"possible","is possible","none"
"0b2b087776dc112716295aa2e43abb0ef1d1cae6ce5e19e94410a0e0756527ef",1456265594440,10,108,10,8,"is","likely",6545,"likely","is likely","none"
"0b2b087776dc112716295aa2e43abb0ef1d1cae6ce5e19e94410a0e0756527ef",1456265602620,11,41,4,1,"is_probably","unlikely",8179,"unlikely","is_probably unlikely","high"
"0b2b087776dc112716295aa2e43abb0ef1d1cae6ce5e19e94410a0e0756527ef",1456265621350,12,102,10,2,"is","unlikely",18729,"unlikely","is unlikely","none"
"eaef5ee8b7ef8755a1b80452072841ccacd29f2aeb54e5b58408c76648e4efb7",1456319930458,1,82,8,2,"might_be","possible",16415,"possible","might_be possible","low"
"eaef5ee8b7ef8755a1b80452072841ccacd29f2aeb54e5b58408c76648e4efb7",1456319941300,2,103,10,3,"might_be","possible",10820,"possible","might_be possible","none"
"eaef5ee8b7ef8755a1b80452072841ccacd29f2aeb54e5b58408c76648e4efb7",1456319954295,3,22,2,2,"is","unlikely",12980,"unlikely","is unlikely","high"
"eaef5ee8b7ef8755a1b80452072841ccacd29f2aeb54e5b58408c76648e4efb7",1456319971795,4,88,8,8,"is_certainly","likely",17486,"likely","is_certainly likely","low"
"eaef5ee8b7ef8755a1b80452072841ccacd29f2aeb54e5b58408c76648e4efb7",1456319994861,5,80,8,0,"is_certainly","unlikely",23056,"unlikely","is_certainly unlikely","low"
"eaef5ee8b7ef8755a1b80452072841ccacd29f2aeb54e5b58408c76648e4efb7",1456320005254,6,84,8,4,"might_be","possible",10381,"possible","might_be possible","low"
"eaef5ee8b7ef8755a1b80452072841ccacd29f2aeb54e5b58408c76648e4efb7",1456320013704,7,43,4,3,"is_probably","probable",8430,"likely","is_probably likely","high"
"eaef5ee8b7ef8755a1b80452072841ccacd29f2aeb54e5b58408c76648e4efb7",1456320020826,8,105,10,5,"is","likely",7103,"likely","is likely","none"
"eaef5ee8b7ef8755a1b80452072841ccacd29f2aeb54e5b58408c76648e4efb7",1456320028985,9,102,10,2,"might_be","likely",8141,"likely","might_be likely","none"
"eaef5ee8b7ef8755a1b80452072841ccacd29f2aeb54e5b58408c76648e4efb7",1456320036503,10,108,10,8,"is","likely",7500,"likely","is likely","none"
"eaef5ee8b7ef8755a1b80452072841ccacd29f2aeb54e5b58408c76648e4efb7",1456320042730,11,86,8,6,"is","likely",6213,"likely","is likely","low"
"eaef5ee8b7ef8755a1b80452072841ccacd29f2aeb54e5b58408c76648e4efb7",1456320048585,12,20,2,0,"is_certainly","unlikely",5841,"unlikely","is_certainly unlikely","high"
"c18d44f278700c2a92a6b63ee3fa4b570938fda189b78cbb4485177336305978",1456273661813,1,88,8,8,"is_certainly","likely",13719,"likely","is_certainly likely","low"
"c18d44f278700c2a92a6b63ee3fa4b570938fda189b78cbb4485177336305978",1456273670145,2,22,2,2,"might_be","possible",8330,"possible","might_be possible","high"
"c18d44f278700c2a92a6b63ee3fa4b570938fda189b78cbb4485177336305978",1456273686129,3,20,2,0,"might_be","unlikely",15981,"unlikely","might_be unlikely","high"
"c18d44f278700c2a92a6b63ee3fa4b570938fda189b78cbb4485177336305978",1456273692024,4,43,4,3,"is_probably","probable",5890,"likely","is_probably likely","high"
"c18d44f278700c2a92a6b63ee3fa4b570938fda189b78cbb4485177336305978",1456273702203,5,107,10,7,"is_probably","probable",10177,"likely","is_probably likely","none"
"c18d44f278700c2a92a6b63ee3fa4b570938fda189b78cbb4485177336305978",1456273712466,6,105,10,5,"is","possible",10261,"possible","is possible","none"
"c18d44f278700c2a92a6b63ee3fa4b570938fda189b78cbb4485177336305978",1456273719401,7,42,4,2,"is","possible",6933,"possible","is possible","high"
"c18d44f278700c2a92a6b63ee3fa4b570938fda189b78cbb4485177336305978",1456273726149,8,82,8,2,"is","unlikely",6746,"unlikely","is unlikely","low"
"c18d44f278700c2a92a6b63ee3fa4b570938fda189b78cbb4485177336305978",1456273731758,9,86,8,6,"is","probable",5607,"likely","is likely","low"
"c18d44f278700c2a92a6b63ee3fa4b570938fda189b78cbb4485177336305978",1456273738916,10,108,10,8,"is","likely",7156,"likely","is likely","none"
"c18d44f278700c2a92a6b63ee3fa4b570938fda189b78cbb4485177336305978",1456273744493,11,80,8,0,"is","unlikely",5574,"unlikely","is unlikely","low"
"c18d44f278700c2a92a6b63ee3fa4b570938fda189b78cbb4485177336305978",1456273749246,12,102,10,2,"is","unlikely",4751,"unlikely","is unlikely","none"
"8e9e059d5625b5804f809646321e7e6369a76c0e652a90de866402e7db9632a5",1456259632034,1,82,8,2,"is","unlikely",25806,"unlikely","is unlikely","low"
"8e9e059d5625b5804f809646321e7e6369a76c0e652a90de866402e7db9632a5",1456259645629,2,88,8,8,"is_certainly","likely",13592,"likely","is_certainly likely","low"
"8e9e059d5625b5804f809646321e7e6369a76c0e652a90de866402e7db9632a5",1456259660389,3,102,10,2,"is","unlikely",14759,"unlikely","is unlikely","none"
"8e9e059d5625b5804f809646321e7e6369a76c0e652a90de866402e7db9632a5",1456259668374,4,80,8,0,"is_certainly","unlikely",7984,"unlikely","is_certainly unlikely","low"
"8e9e059d5625b5804f809646321e7e6369a76c0e652a90de866402e7db9632a5",1456259682100,5,41,4,1,"is","unlikely",13726,"unlikely","is unlikely","high"
"8e9e059d5625b5804f809646321e7e6369a76c0e652a90de866402e7db9632a5",1456259687695,6,20,2,0,"is","probable",5594,"likely","is likely","high"
"8e9e059d5625b5804f809646321e7e6369a76c0e652a90de866402e7db9632a5",1456259705727,7,105,10,5,"is_certainly","possible",18031,"possible","is_certainly possible","none"
"8e9e059d5625b5804f809646321e7e6369a76c0e652a90de866402e7db9632a5",1456259712385,8,86,8,6,"is","likely",6657,"likely","is likely","low"
"8e9e059d5625b5804f809646321e7e6369a76c0e652a90de866402e7db9632a5",1456259716831,9,108,10,8,"is_certainly","likely",4445,"likely","is_certainly likely","none"
"8e9e059d5625b5804f809646321e7e6369a76c0e652a90de866402e7db9632a5",1456259720996,10,84,8,4,"is","probable",4164,"likely","is likely","low"
"8e9e059d5625b5804f809646321e7e6369a76c0e652a90de866402e7db9632a5",1456259724196,11,42,4,2,"is","probable",3200,"likely","is likely","high"
"8e9e059d5625b5804f809646321e7e6369a76c0e652a90de866402e7db9632a5",1456259744504,12,43,4,3,"is_certainly","likely",20307,"likely","is_certainly likely","high"
"3d406b0c14917676a3409d29343b3a61059aae77e29900da82a6c5ffe1bd5a90",1456342902229,1,82,8,2,"might_be","unlikely",22365,"unlikely","might_be unlikely","low"
"3d406b0c14917676a3409d29343b3a61059aae77e29900da82a6c5ffe1bd5a90",1456342922605,2,88,8,8,"is_probably","probable",20360,"likely","is_probably likely","low"
"3d406b0c14917676a3409d29343b3a61059aae77e29900da82a6c5ffe1bd5a90",1456342938934,3,41,4,1,"is","unlikely",16323,"unlikely","is unlikely","high"
"3d406b0c14917676a3409d29343b3a61059aae77e29900da82a6c5ffe1bd5a90",1456342944468,4,42,4,2,"might_be","possible",5520,"possible","might_be possible","high"
"3d406b0c14917676a3409d29343b3a61059aae77e29900da82a6c5ffe1bd5a90",1456342948942,5,102,10,2,"is_probably","unlikely",4469,"unlikely","is_probably unlikely","none"
"3d406b0c14917676a3409d29343b3a61059aae77e29900da82a6c5ffe1bd5a90",1456342956741,6,103,10,3,"might_be","unlikely",7792,"unlikely","might_be unlikely","none"
"3d406b0c14917676a3409d29343b3a61059aae77e29900da82a6c5ffe1bd5a90",1456342962156,7,80,8,0,"is_probably","unlikely",5408,"unlikely","is_probably unlikely","low"
"3d406b0c14917676a3409d29343b3a61059aae77e29900da82a6c5ffe1bd5a90",1456342967724,8,43,4,3,"might_be","possible",5563,"possible","might_be possible","high"
"3d406b0c14917676a3409d29343b3a61059aae77e29900da82a6c5ffe1bd5a90",1456342978004,9,107,10,7,"is_probably","likely",10275,"likely","is_probably likely","none"
"3d406b0c14917676a3409d29343b3a61059aae77e29900da82a6c5ffe1bd5a90",1456342986355,10,86,8,6,"is","likely",8346,"likely","is likely","low"
"3d406b0c14917676a3409d29343b3a61059aae77e29900da82a6c5ffe1bd5a90",1456342991436,11,22,2,2,"might_be","possible",5075,"possible","might_be possible","high"
"3d406b0c14917676a3409d29343b3a61059aae77e29900da82a6c5ffe1bd5a90",1456342998564,12,105,10,5,"might_be","possible",7123,"possible","might_be possible","none"
"f72a887468771c6036327354c79ddf1acf8d80857a9d088324e277527bd7a4d7",1456259598134,1,86,8,6,"is_certainly","probable",15256,"likely","is_certainly likely","low"
"f72a887468771c6036327354c79ddf1acf8d80857a9d088324e277527bd7a4d7",1456259608395,2,20,2,0,"might_be","possible",10261,"possible","might_be possible","high"
"f72a887468771c6036327354c79ddf1acf8d80857a9d088324e277527bd7a4d7",1456259621135,3,103,10,3,"is_certainly","unlikely",12740,"unlikely","is_certainly unlikely","none"
"f72a887468771c6036327354c79ddf1acf8d80857a9d088324e277527bd7a4d7",1456259631737,4,105,10,5,"is_probably","probable",10586,"likely","is_probably likely","none"
"f72a887468771c6036327354c79ddf1acf8d80857a9d088324e277527bd7a4d7",1456259639671,5,102,10,2,"is_probably","unlikely",7934,"unlikely","is_probably unlikely","none"
"f72a887468771c6036327354c79ddf1acf8d80857a9d088324e277527bd7a4d7",1456259649039,6,108,10,8,"is_certainly","probable",9352,"likely","is_certainly likely","none"
"f72a887468771c6036327354c79ddf1acf8d80857a9d088324e277527bd7a4d7",1456259657254,7,42,4,2,"might_be","possible",8215,"possible","might_be possible","high"
"f72a887468771c6036327354c79ddf1acf8d80857a9d088324e277527bd7a4d7",1456259665141,8,84,8,4,"is_probably","possible",7872,"possible","is_probably possible","low"
"f72a887468771c6036327354c79ddf1acf8d80857a9d088324e277527bd7a4d7",1456259671424,9,41,4,1,"is","unlikely",6283,"unlikely","is unlikely","high"
"f72a887468771c6036327354c79ddf1acf8d80857a9d088324e277527bd7a4d7",1456259677868,10,107,10,7,"is_probably","probable",6444,"likely","is_probably likely","none"
"f72a887468771c6036327354c79ddf1acf8d80857a9d088324e277527bd7a4d7",1456259685294,11,80,8,0,"is","likely",7426,"likely","is likely","low"
"f72a887468771c6036327354c79ddf1acf8d80857a9d088324e277527bd7a4d7",1456259692373,12,82,8,2,"is_probably","unlikely",7075,"unlikely","is_probably unlikely","low"
"d967c5e6c36128670a6229639ce172a360ce12361333f039f25b7032194fa45a",1456169572100,1,82,8,2,"is","unlikely",21273,"unlikely","is unlikely","low"
"d967c5e6c36128670a6229639ce172a360ce12361333f039f25b7032194fa45a",1456169581648,2,102,10,2,"is","unlikely",9538,"unlikely","is unlikely","none"
"d967c5e6c36128670a6229639ce172a360ce12361333f039f25b7032194fa45a",1456169589824,3,88,8,8,"is_certainly","possible",8169,"possible","is_certainly possible","low"
"d967c5e6c36128670a6229639ce172a360ce12361333f039f25b7032194fa45a",1456169599632,4,103,10,3,"is","unlikely",9805,"unlikely","is unlikely","none"
"d967c5e6c36128670a6229639ce172a360ce12361333f039f25b7032194fa45a",1456169608088,5,20,2,0,"is","possible",8450,"possible","is possible","high"
"d967c5e6c36128670a6229639ce172a360ce12361333f039f25b7032194fa45a",1456169613855,6,42,4,2,"is","possible",5762,"possible","is possible","high"
"d967c5e6c36128670a6229639ce172a360ce12361333f039f25b7032194fa45a",1456169621636,7,43,4,3,"is","probable",7776,"likely","is likely","high"
"d967c5e6c36128670a6229639ce172a360ce12361333f039f25b7032194fa45a",1456169629963,8,105,10,5,"is","possible",8323,"possible","is possible","none"
"d967c5e6c36128670a6229639ce172a360ce12361333f039f25b7032194fa45a",1456169636489,9,41,4,1,"is","unlikely",6522,"unlikely","is unlikely","high"
"d967c5e6c36128670a6229639ce172a360ce12361333f039f25b7032194fa45a",1456169641762,10,107,10,7,"is","likely",5266,"likely","is likely","none"
"d967c5e6c36128670a6229639ce172a360ce12361333f039f25b7032194fa45a",1456169647143,11,22,2,2,"is","possible",5377,"possible","is possible","high"
"d967c5e6c36128670a6229639ce172a360ce12361333f039f25b7032194fa45a",1456169652646,12,84,8,4,"is","possible",5495,"possible","is possible","low"
"35c02d7dcaffba54df81dff09337b54b3c8461a1895ae8a36462dec172d31351",1456259691407,1,80,8,0,"is","unlikely",28573,"unlikely","is unlikely","low"
"35c02d7dcaffba54df81dff09337b54b3c8461a1895ae8a36462dec172d31351",1456259698441,2,108,10,8,"is","probable",7029,"likely","is likely","none"
"35c02d7dcaffba54df81dff09337b54b3c8461a1895ae8a36462dec172d31351",1456259706319,3,84,8,4,"might_be","possible",7876,"possible","might_be possible","low"
"35c02d7dcaffba54df81dff09337b54b3c8461a1895ae8a36462dec172d31351",1456259711892,4,107,10,7,"is","probable",5572,"likely","is likely","none"
"35c02d7dcaffba54df81dff09337b54b3c8461a1895ae8a36462dec172d31351",1456259718419,5,82,8,2,"is","unlikely",6525,"unlikely","is unlikely","low"
"35c02d7dcaffba54df81dff09337b54b3c8461a1895ae8a36462dec172d31351",1456259724676,6,22,2,2,"is","possible",6256,"possible","is possible","high"
"35c02d7dcaffba54df81dff09337b54b3c8461a1895ae8a36462dec172d31351",1456259729227,7,42,4,2,"is","possible",4550,"possible","is possible","high"
"35c02d7dcaffba54df81dff09337b54b3c8461a1895ae8a36462dec172d31351",1456259734934,8,86,8,6,"is","probable",5706,"likely","is likely","low"
"35c02d7dcaffba54df81dff09337b54b3c8461a1895ae8a36462dec172d31351",1456259741097,9,102,10,2,"is","unlikely",6161,"unlikely","is unlikely","none"
"35c02d7dcaffba54df81dff09337b54b3c8461a1895ae8a36462dec172d31351",1456259750876,10,103,10,3,"is","unlikely",9778,"unlikely","is unlikely","none"
"35c02d7dcaffba54df81dff09337b54b3c8461a1895ae8a36462dec172d31351",1456259759948,11,41,4,1,"is","possible",9068,"possible","is possible","high"
"35c02d7dcaffba54df81dff09337b54b3c8461a1895ae8a36462dec172d31351",1456259764166,12,20,2,0,"is","possible",4217,"possible","is possible","high"
"1e5ad51285ba4721e6e0ab5bc4e29742ee19be80ed4f00944e08e65bbcd68e21",1456170412770,1,22,2,2,"might_be","possible",47557,"possible","might_be possible","high"
"1e5ad51285ba4721e6e0ab5bc4e29742ee19be80ed4f00944e08e65bbcd68e21",1456170433301,2,41,4,1,"is_probably","unlikely",20526,"unlikely","is_probably unlikely","high"
"1e5ad51285ba4721e6e0ab5bc4e29742ee19be80ed4f00944e08e65bbcd68e21",1456170474040,3,102,10,2,"is_probably","unlikely",40738,"unlikely","is_probably unlikely","none"
"1e5ad51285ba4721e6e0ab5bc4e29742ee19be80ed4f00944e08e65bbcd68e21",1456170504312,4,86,8,6,"is","probable",30266,"likely","is likely","low"
"1e5ad51285ba4721e6e0ab5bc4e29742ee19be80ed4f00944e08e65bbcd68e21",1456170518832,5,84,8,4,"might_be","possible",14518,"possible","might_be possible","low"
"1e5ad51285ba4721e6e0ab5bc4e29742ee19be80ed4f00944e08e65bbcd68e21",1456170532347,6,42,4,2,"might_be","possible",13509,"possible","might_be possible","high"
"1e5ad51285ba4721e6e0ab5bc4e29742ee19be80ed4f00944e08e65bbcd68e21",1456170554608,7,107,10,7,"is","probable",22259,"likely","is likely","none"
"1e5ad51285ba4721e6e0ab5bc4e29742ee19be80ed4f00944e08e65bbcd68e21",1456170567550,8,43,4,3,"might_be","possible",12937,"possible","might_be possible","high"
"1e5ad51285ba4721e6e0ab5bc4e29742ee19be80ed4f00944e08e65bbcd68e21",1456170579502,9,88,8,8,"is_certainly","probable",11947,"likely","is_certainly likely","low"
"1e5ad51285ba4721e6e0ab5bc4e29742ee19be80ed4f00944e08e65bbcd68e21",1456170592384,10,82,8,2,"is","probable",12881,"likely","is likely","low"
"1e5ad51285ba4721e6e0ab5bc4e29742ee19be80ed4f00944e08e65bbcd68e21",1456170605105,11,108,10,8,"is","probable",12720,"likely","is likely","none"
"1e5ad51285ba4721e6e0ab5bc4e29742ee19be80ed4f00944e08e65bbcd68e21",1456170621713,12,105,10,5,"might_be","possible",16606,"possible","might_be possible","none"
"b707c72d2d23d9db65c68729cae8fe77a4c467f59f4810a8402091699756e61c",1456259664136,1,107,10,7,"is_probably","likely",33800,"likely","is_probably likely","none"
"b707c72d2d23d9db65c68729cae8fe77a4c467f59f4810a8402091699756e61c",1456259676760,2,105,10,5,"is","possible",12618,"possible","is possible","none"
"b707c72d2d23d9db65c68729cae8fe77a4c467f59f4810a8402091699756e61c",1456259685841,3,42,4,2,"might_be","possible",9076,"possible","might_be possible","high"
"b707c72d2d23d9db65c68729cae8fe77a4c467f59f4810a8402091699756e61c",1456259692389,4,86,8,6,"is_probably","possible",6542,"possible","is_probably possible","low"
"b707c72d2d23d9db65c68729cae8fe77a4c467f59f4810a8402091699756e61c",1456259702460,5,102,10,2,"is_probably","unlikely",10064,"unlikely","is_probably unlikely","none"
"b707c72d2d23d9db65c68729cae8fe77a4c467f59f4810a8402091699756e61c",1456259711604,6,41,4,1,"is","unlikely",9130,"unlikely","is unlikely","high"
"b707c72d2d23d9db65c68729cae8fe77a4c467f59f4810a8402091699756e61c",1456259718452,7,84,8,4,"is","possible",6833,"possible","is possible","low"
"b707c72d2d23d9db65c68729cae8fe77a4c467f59f4810a8402091699756e61c",1456259724685,8,82,8,2,"is","unlikely",6224,"unlikely","is unlikely","low"
"b707c72d2d23d9db65c68729cae8fe77a4c467f59f4810a8402091699756e61c",1456259736995,9,22,2,2,"is_certainly","likely",12302,"likely","is_certainly likely","high"
"b707c72d2d23d9db65c68729cae8fe77a4c467f59f4810a8402091699756e61c",1456259744524,10,43,4,3,"is_probably","likely",7522,"likely","is_probably likely","high"
"b707c72d2d23d9db65c68729cae8fe77a4c467f59f4810a8402091699756e61c",1456259752998,11,80,8,0,"is_certainly","unlikely",8468,"unlikely","is_certainly unlikely","low"
"b707c72d2d23d9db65c68729cae8fe77a4c467f59f4810a8402091699756e61c",1456259763763,12,20,2,0,"is_certainly","unlikely",10759,"unlikely","is_certainly unlikely","high"
"86efe37d9dbdc6e000891e5f97769d8f22a10b00188345b414e62b0dbd0ef1df",1456169532793,1,108,10,8,"is","possible",16559,"possible","is possible","none"
"86efe37d9dbdc6e000891e5f97769d8f22a10b00188345b414e62b0dbd0ef1df",1456169545809,2,41,4,1,"is_probably","probable",13010,"likely","is_probably likely","high"
"86efe37d9dbdc6e000891e5f97769d8f22a10b00188345b414e62b0dbd0ef1df",1456169553702,3,22,2,2,"might_be","possible",7889,"possible","might_be possible","high"
"86efe37d9dbdc6e000891e5f97769d8f22a10b00188345b414e62b0dbd0ef1df",1456169560741,4,43,4,3,"might_be","probable",7031,"likely","might_be likely","high"
"86efe37d9dbdc6e000891e5f97769d8f22a10b00188345b414e62b0dbd0ef1df",1456169575613,5,102,10,2,"might_be","unlikely",14866,"unlikely","might_be unlikely","none"
"86efe37d9dbdc6e000891e5f97769d8f22a10b00188345b414e62b0dbd0ef1df",1456169586804,6,86,8,6,"is_certainly","probable",11186,"likely","is_certainly likely","low"
"86efe37d9dbdc6e000891e5f97769d8f22a10b00188345b414e62b0dbd0ef1df",1456169591876,7,88,8,8,"is_certainly","probable",5067,"likely","is_certainly likely","low"
"86efe37d9dbdc6e000891e5f97769d8f22a10b00188345b414e62b0dbd0ef1df",1456169598902,8,42,4,2,"might_be","possible",7020,"possible","might_be possible","high"
"86efe37d9dbdc6e000891e5f97769d8f22a10b00188345b414e62b0dbd0ef1df",1456169605909,9,82,8,2,"is_probably","unlikely",7002,"unlikely","is_probably unlikely","low"
"86efe37d9dbdc6e000891e5f97769d8f22a10b00188345b414e62b0dbd0ef1df",1456169617117,10,103,10,3,"might_be","possible",11200,"possible","might_be possible","none"
"86efe37d9dbdc6e000891e5f97769d8f22a10b00188345b414e62b0dbd0ef1df",1456169624499,11,80,8,0,"is_certainly","unlikely",7368,"unlikely","is_certainly unlikely","low"
"86efe37d9dbdc6e000891e5f97769d8f22a10b00188345b414e62b0dbd0ef1df",1456169631491,12,20,2,0,"might_be","likely",6986,"likely","might_be likely","high"
"11f51e21424709b87364e4ef21f4d5bff9bf76903abd5ca3dd45ab966912c17d",1456169642195,1,102,10,2,"is_certainly","unlikely",19044,"unlikely","is_certainly unlikely","none"
"11f51e21424709b87364e4ef21f4d5bff9bf76903abd5ca3dd45ab966912c17d",1456169659741,2,108,10,8,"is_certainly","probable",17542,"likely","is_certainly likely","none"
"11f51e21424709b87364e4ef21f4d5bff9bf76903abd5ca3dd45ab966912c17d",1456169680966,3,80,8,0,"is_certainly","unlikely",21223,"unlikely","is_certainly unlikely","low"
"11f51e21424709b87364e4ef21f4d5bff9bf76903abd5ca3dd45ab966912c17d",1456169687942,4,107,10,7,"is_probably","probable",6972,"likely","is_probably likely","none"
"11f51e21424709b87364e4ef21f4d5bff9bf76903abd5ca3dd45ab966912c17d",1456169702564,5,86,8,6,"is_probably","probable",14621,"likely","is_probably likely","low"
"11f51e21424709b87364e4ef21f4d5bff9bf76903abd5ca3dd45ab966912c17d",1456169712300,6,84,8,4,"is","possible",9735,"possible","is possible","low"
"11f51e21424709b87364e4ef21f4d5bff9bf76903abd5ca3dd45ab966912c17d",1456169718060,7,22,2,2,"might_be","possible",5756,"possible","might_be possible","high"
"11f51e21424709b87364e4ef21f4d5bff9bf76903abd5ca3dd45ab966912c17d",1456169727608,8,88,8,8,"is_probably","probable",9547,"likely","is_probably likely","low"
"11f51e21424709b87364e4ef21f4d5bff9bf76903abd5ca3dd45ab966912c17d",1456169733338,9,41,4,1,"is_probably","unlikely",5728,"unlikely","is_probably unlikely","high"
"11f51e21424709b87364e4ef21f4d5bff9bf76903abd5ca3dd45ab966912c17d",1456169742592,10,105,10,5,"is_probably","possible",9252,"possible","is_probably possible","none"
"11f51e21424709b87364e4ef21f4d5bff9bf76903abd5ca3dd45ab966912c17d",1456169750372,11,82,8,2,"is_probably","unlikely",7777,"unlikely","is_probably unlikely","low"
"11f51e21424709b87364e4ef21f4d5bff9bf76903abd5ca3dd45ab966912c17d",1456169885232,12,43,4,3,"might_be","possible",134855,"possible","might_be possible","high"
"3263f59921898f435ff68f95669059d1543507a86b90d0b3df5122e2f7f1ad4b",1456259554596,1,86,8,6,"is_probably","unlikely",12585,"unlikely","is_probably unlikely","low"
"3263f59921898f435ff68f95669059d1543507a86b90d0b3df5122e2f7f1ad4b",1456259559979,2,22,2,2,"is_probably","possible",5382,"possible","is_probably possible","high"
"3263f59921898f435ff68f95669059d1543507a86b90d0b3df5122e2f7f1ad4b",1456259563022,3,105,10,5,"might_be","probable",3042,"likely","might_be likely","none"
"3263f59921898f435ff68f95669059d1543507a86b90d0b3df5122e2f7f1ad4b",1456259565865,4,41,4,1,"might_be","possible",2841,"possible","might_be possible","high"
"3263f59921898f435ff68f95669059d1543507a86b90d0b3df5122e2f7f1ad4b",1456259568274,5,107,10,7,"is_probably","probable",2408,"likely","is_probably likely","none"
"3263f59921898f435ff68f95669059d1543507a86b90d0b3df5122e2f7f1ad4b",1456259573610,6,108,10,8,"is_probably","possible",5334,"possible","is_probably possible","none"
"3263f59921898f435ff68f95669059d1543507a86b90d0b3df5122e2f7f1ad4b",1456259576471,7,42,4,2,"is_probably","probable",2860,"likely","is_probably likely","high"
"3263f59921898f435ff68f95669059d1543507a86b90d0b3df5122e2f7f1ad4b",1456259578601,8,43,4,3,"might_be","possible",2129,"possible","might_be possible","high"
"3263f59921898f435ff68f95669059d1543507a86b90d0b3df5122e2f7f1ad4b",1456259580345,9,82,8,2,"is_probably","possible",1742,"possible","is_probably possible","low"
"3263f59921898f435ff68f95669059d1543507a86b90d0b3df5122e2f7f1ad4b",1456259582804,10,20,2,0,"is_certainly","probable",2457,"likely","is_certainly likely","high"
"3263f59921898f435ff68f95669059d1543507a86b90d0b3df5122e2f7f1ad4b",1456259585426,11,102,10,2,"is_probably","unlikely",2621,"unlikely","is_probably unlikely","none"
"3263f59921898f435ff68f95669059d1543507a86b90d0b3df5122e2f7f1ad4b",1456259588923,12,80,8,0,"might_be","likely",3496,"likely","might_be likely","low"
"166040fcacd4ddfa10e5b2c78f067cd97ccc6cfab28d79c8f98f8175bc9bea16",1456260648667,1,103,10,3,"is","unlikely",26195,"unlikely","is unlikely","none"
"166040fcacd4ddfa10e5b2c78f067cd97ccc6cfab28d79c8f98f8175bc9bea16",1456260662548,2,86,8,6,"might_be","likely",13881,"likely","might_be likely","low"
"166040fcacd4ddfa10e5b2c78f067cd97ccc6cfab28d79c8f98f8175bc9bea16",1456260692466,3,108,10,8,"is","likely",29883,"likely","is likely","none"
"166040fcacd4ddfa10e5b2c78f067cd97ccc6cfab28d79c8f98f8175bc9bea16",1456260703597,4,82,8,2,"is","unlikely",11115,"unlikely","is unlikely","low"
"166040fcacd4ddfa10e5b2c78f067cd97ccc6cfab28d79c8f98f8175bc9bea16",1456260721629,5,42,4,2,"is","probable",18032,"likely","is likely","high"
"166040fcacd4ddfa10e5b2c78f067cd97ccc6cfab28d79c8f98f8175bc9bea16",1456260733728,6,22,2,2,"is_probably","probable",12083,"likely","is_probably likely","high"
"166040fcacd4ddfa10e5b2c78f067cd97ccc6cfab28d79c8f98f8175bc9bea16",1456260744013,7,41,4,1,"is","unlikely",10285,"unlikely","is unlikely","high"
"166040fcacd4ddfa10e5b2c78f067cd97ccc6cfab28d79c8f98f8175bc9bea16",1456260752643,8,80,8,0,"is_certainly","unlikely",8598,"unlikely","is_certainly unlikely","low"
"166040fcacd4ddfa10e5b2c78f067cd97ccc6cfab28d79c8f98f8175bc9bea16",1456260772981,9,84,8,4,"is","probable",20338,"likely","is likely","low"
"166040fcacd4ddfa10e5b2c78f067cd97ccc6cfab28d79c8f98f8175bc9bea16",1456260784625,10,20,2,0,"might_be","unlikely",11628,"unlikely","might_be unlikely","high"
"166040fcacd4ddfa10e5b2c78f067cd97ccc6cfab28d79c8f98f8175bc9bea16",1456260791560,11,88,8,8,"is_certainly","likely",6920,"likely","is_certainly likely","low"
"166040fcacd4ddfa10e5b2c78f067cd97ccc6cfab28d79c8f98f8175bc9bea16",1456260802962,12,107,10,7,"is","likely",11402,"likely","is likely","none"
"3d60e09f6f9f3026435a43cc6a9a95e94923741ef44397d9264bbc9fc0f3e5f6",1456169746134,1,80,8,0,"is","unlikely",9859,"unlikely","is unlikely","low"
"3d60e09f6f9f3026435a43cc6a9a95e94923741ef44397d9264bbc9fc0f3e5f6",1456169761376,2,84,8,4,"is_probably","possible",15240,"possible","is_probably possible","low"
"3d60e09f6f9f3026435a43cc6a9a95e94923741ef44397d9264bbc9fc0f3e5f6",1456169767795,3,88,8,8,"is_probably","probable",6412,"likely","is_probably likely","low"
"3d60e09f6f9f3026435a43cc6a9a95e94923741ef44397d9264bbc9fc0f3e5f6",1456169774204,4,82,8,2,"might_be","possible",6406,"possible","might_be possible","low"
"3d60e09f6f9f3026435a43cc6a9a95e94923741ef44397d9264bbc9fc0f3e5f6",1456169780506,5,20,2,0,"is","unlikely",6299,"unlikely","is unlikely","high"
"3d60e09f6f9f3026435a43cc6a9a95e94923741ef44397d9264bbc9fc0f3e5f6",1456169786164,6,108,10,8,"is","likely",5656,"likely","is likely","none"
"3d60e09f6f9f3026435a43cc6a9a95e94923741ef44397d9264bbc9fc0f3e5f6",1456169792514,7,41,4,1,"is","unlikely",6346,"unlikely","is unlikely","high"
"3d60e09f6f9f3026435a43cc6a9a95e94923741ef44397d9264bbc9fc0f3e5f6",1456169798212,8,22,2,2,"is","likely",5695,"likely","is likely","high"
"3d60e09f6f9f3026435a43cc6a9a95e94923741ef44397d9264bbc9fc0f3e5f6",1456169802124,9,42,4,2,"is","possible",3909,"possible","is possible","high"
"3d60e09f6f9f3026435a43cc6a9a95e94923741ef44397d9264bbc9fc0f3e5f6",1456169809044,10,86,8,6,"is","likely",6918,"likely","is likely","low"
"3d60e09f6f9f3026435a43cc6a9a95e94923741ef44397d9264bbc9fc0f3e5f6",1456169813527,11,102,10,2,"is","unlikely",4481,"unlikely","is unlikely","none"
"3d60e09f6f9f3026435a43cc6a9a95e94923741ef44397d9264bbc9fc0f3e5f6",1456169817230,12,105,10,5,"is","possible",3700,"possible","is possible","none"
"908dfbf8c75548d43ecd8f79c9b473b4343a8427ee448c0765b6456637d270ee",1456169731540,1,80,8,0,"is_certainly","unlikely",41913,"unlikely","is_certainly unlikely","low"
"908dfbf8c75548d43ecd8f79c9b473b4343a8427ee448c0765b6456637d270ee",1456169793083,2,86,8,6,"is","probable",61540,"likely","is likely","low"
"908dfbf8c75548d43ecd8f79c9b473b4343a8427ee448c0765b6456637d270ee",1456169824587,3,82,8,2,"is","unlikely",31501,"unlikely","is unlikely","low"
"908dfbf8c75548d43ecd8f79c9b473b4343a8427ee448c0765b6456637d270ee",1456169833275,4,88,8,8,"is_certainly","probable",8687,"likely","is_certainly likely","low"
"908dfbf8c75548d43ecd8f79c9b473b4343a8427ee448c0765b6456637d270ee",1456169855332,5,108,10,8,"is","probable",22054,"likely","is likely","none"
"908dfbf8c75548d43ecd8f79c9b473b4343a8427ee448c0765b6456637d270ee",1456169870108,6,41,4,1,"is","possible",14773,"possible","is possible","high"
"908dfbf8c75548d43ecd8f79c9b473b4343a8427ee448c0765b6456637d270ee",1456169880259,7,103,10,3,"is","unlikely",10150,"unlikely","is unlikely","none"
"908dfbf8c75548d43ecd8f79c9b473b4343a8427ee448c0765b6456637d270ee",1456169890236,8,20,2,0,"is","possible",9975,"possible","is possible","high"
"908dfbf8c75548d43ecd8f79c9b473b4343a8427ee448c0765b6456637d270ee",1456169899651,9,84,8,4,"is","possible",9414,"possible","is possible","low"
"908dfbf8c75548d43ecd8f79c9b473b4343a8427ee448c0765b6456637d270ee",1456169968019,10,102,10,2,"is","unlikely",68367,"unlikely","is unlikely","none"
"908dfbf8c75548d43ecd8f79c9b473b4343a8427ee448c0765b6456637d270ee",1456169980500,11,105,10,5,"is_certainly","possible",12478,"possible","is_certainly possible","none"
"908dfbf8c75548d43ecd8f79c9b473b4343a8427ee448c0765b6456637d270ee",1456169989651,12,42,4,2,"is","possible",9150,"possible","is possible","high"
"b48da5580ffc537a1247287c2de1c1d39408218dc1e31f3a9e4109c6c1ee4a95",1456307912174,1,42,4,2,"is","possible",17854,"possible","is possible","high"
"b48da5580ffc537a1247287c2de1c1d39408218dc1e31f3a9e4109c6c1ee4a95",1456307920064,2,86,8,6,"is","unlikely",7888,"unlikely","is unlikely","low"
"b48da5580ffc537a1247287c2de1c1d39408218dc1e31f3a9e4109c6c1ee4a95",1456307926686,3,103,10,3,"is","possible",6621,"possible","is possible","none"
"b48da5580ffc537a1247287c2de1c1d39408218dc1e31f3a9e4109c6c1ee4a95",1456307937191,4,108,10,8,"is","likely",10503,"likely","is likely","none"
"b48da5580ffc537a1247287c2de1c1d39408218dc1e31f3a9e4109c6c1ee4a95",1456307943675,5,41,4,1,"is","possible",6483,"possible","is possible","high"
"b48da5580ffc537a1247287c2de1c1d39408218dc1e31f3a9e4109c6c1ee4a95",1456307952935,6,84,8,4,"is","possible",9257,"possible","is possible","low"
"b48da5580ffc537a1247287c2de1c1d39408218dc1e31f3a9e4109c6c1ee4a95",1456307961351,7,80,8,0,"is","possible",8414,"possible","is possible","low"
"b48da5580ffc537a1247287c2de1c1d39408218dc1e31f3a9e4109c6c1ee4a95",1456307970575,8,107,10,7,"is","likely",9222,"likely","is likely","none"
"b48da5580ffc537a1247287c2de1c1d39408218dc1e31f3a9e4109c6c1ee4a95",1456307974567,9,105,10,5,"is","possible",3991,"possible","is possible","none"
"b48da5580ffc537a1247287c2de1c1d39408218dc1e31f3a9e4109c6c1ee4a95",1456307982807,10,43,4,3,"is","possible",8239,"possible","is possible","high"
"b48da5580ffc537a1247287c2de1c1d39408218dc1e31f3a9e4109c6c1ee4a95",1456307987695,11,102,10,2,"is","unlikely",4886,"unlikely","is unlikely","none"
"b48da5580ffc537a1247287c2de1c1d39408218dc1e31f3a9e4109c6c1ee4a95",1456307992247,12,20,2,0,"is","possible",4551,"possible","is possible","high"
"e52f618c8a4de4d50f1762b3632132fa4d0c5ad0495004a09f081a0e31196d1b",1456170153494,1,102,10,2,"is_certainly","unlikely",20506,"unlikely","is_certainly unlikely","none"
"e52f618c8a4de4d50f1762b3632132fa4d0c5ad0495004a09f081a0e31196d1b",1456170162606,2,20,2,0,"is","likely",9109,"likely","is likely","high"
"e52f618c8a4de4d50f1762b3632132fa4d0c5ad0495004a09f081a0e31196d1b",1456170170583,3,42,4,2,"is","likely",7976,"likely","is likely","high"
"e52f618c8a4de4d50f1762b3632132fa4d0c5ad0495004a09f081a0e31196d1b",1456170179693,4,107,10,7,"is","probable",9109,"likely","is likely","none"
"e52f618c8a4de4d50f1762b3632132fa4d0c5ad0495004a09f081a0e31196d1b",1456170190038,5,88,8,8,"is_certainly","likely",10344,"likely","is_certainly likely","low"
"e52f618c8a4de4d50f1762b3632132fa4d0c5ad0495004a09f081a0e31196d1b",1456170195950,6,84,8,4,"is","unlikely",5906,"unlikely","is unlikely","low"
"e52f618c8a4de4d50f1762b3632132fa4d0c5ad0495004a09f081a0e31196d1b",1456170202492,7,43,4,3,"is","unlikely",6541,"unlikely","is unlikely","high"
"e52f618c8a4de4d50f1762b3632132fa4d0c5ad0495004a09f081a0e31196d1b",1456170206812,8,86,8,6,"is","likely",4318,"likely","is likely","low"
"e52f618c8a4de4d50f1762b3632132fa4d0c5ad0495004a09f081a0e31196d1b",1456170213260,9,82,8,2,"is","unlikely",6446,"unlikely","is unlikely","low"
"e52f618c8a4de4d50f1762b3632132fa4d0c5ad0495004a09f081a0e31196d1b",1456170220285,10,103,10,3,"is","unlikely",7024,"unlikely","is unlikely","none"
"e52f618c8a4de4d50f1762b3632132fa4d0c5ad0495004a09f081a0e31196d1b",1456170224196,11,108,10,8,"is_probably","likely",3910,"likely","is_probably likely","none"
"e52f618c8a4de4d50f1762b3632132fa4d0c5ad0495004a09f081a0e31196d1b",1456170227901,12,80,8,0,"is","unlikely",3704,"unlikely","is unlikely","low"
"b8e10d1f44178ee528ff306c473d17fc0f7c4e3ddafa49d14b74957f9799c4ba",1455802080794,1,102,10,2,"is_certainly","unlikely",28729,"unlikely","is_certainly unlikely","none"
"b8e10d1f44178ee528ff306c473d17fc0f7c4e3ddafa49d14b74957f9799c4ba",1455802098459,2,103,10,3,"is","unlikely",17644,"unlikely","is unlikely","none"
"b8e10d1f44178ee528ff306c473d17fc0f7c4e3ddafa49d14b74957f9799c4ba",1455802115438,3,88,8,8,"is_certainly","likely",16958,"likely","is_certainly likely","low"
"b8e10d1f44178ee528ff306c473d17fc0f7c4e3ddafa49d14b74957f9799c4ba",1455802130039,4,84,8,4,"is","possible",14581,"possible","is possible","low"
"b8e10d1f44178ee528ff306c473d17fc0f7c4e3ddafa49d14b74957f9799c4ba",1455802140955,5,80,8,0,"is_certainly","unlikely",10892,"unlikely","is_certainly unlikely","low"
"b8e10d1f44178ee528ff306c473d17fc0f7c4e3ddafa49d14b74957f9799c4ba",1455802151970,6,20,2,0,"is","unlikely",10991,"unlikely","is unlikely","high"
"b8e10d1f44178ee528ff306c473d17fc0f7c4e3ddafa49d14b74957f9799c4ba",1455802255830,7,86,8,6,"is","likely",103839,"likely","is likely","low"
"b8e10d1f44178ee528ff306c473d17fc0f7c4e3ddafa49d14b74957f9799c4ba",1455802308019,8,108,10,8,"is_certainly","likely",52163,"likely","is_certainly likely","none"
"b8e10d1f44178ee528ff306c473d17fc0f7c4e3ddafa49d14b74957f9799c4ba",1455802313558,9,82,8,2,"is","unlikely",5519,"unlikely","is unlikely","low"
"b8e10d1f44178ee528ff306c473d17fc0f7c4e3ddafa49d14b74957f9799c4ba",1455802320339,10,107,10,7,"is","probable",6760,"likely","is likely","none"
"b8e10d1f44178ee528ff306c473d17fc0f7c4e3ddafa49d14b74957f9799c4ba",1455802325581,11,42,4,2,"is","possible",5222,"possible","is possible","high"
"b8e10d1f44178ee528ff306c473d17fc0f7c4e3ddafa49d14b74957f9799c4ba",1455802334039,12,41,4,1,"is","unlikely",8434,"unlikely","is unlikely","high"
"5acb9dcf55f0f205080d369ab309160e3d9dea800e5fddea59731377d070f65b",1456181954034,1,22,2,2,"is","likely",12799,"likely","is likely","high"
"5acb9dcf55f0f205080d369ab309160e3d9dea800e5fddea59731377d070f65b",1456181965348,2,88,8,8,"is_certainly","probable",11312,"likely","is_certainly likely","low"
"5acb9dcf55f0f205080d369ab309160e3d9dea800e5fddea59731377d070f65b",1456181980467,3,102,10,2,"is","unlikely",15116,"unlikely","is unlikely","none"
"5acb9dcf55f0f205080d369ab309160e3d9dea800e5fddea59731377d070f65b",1456181990619,4,43,4,3,"might_be","likely",10150,"likely","might_be likely","high"
"5acb9dcf55f0f205080d369ab309160e3d9dea800e5fddea59731377d070f65b",1456181999077,5,107,10,7,"is","probable",8455,"likely","is likely","none"
"5acb9dcf55f0f205080d369ab309160e3d9dea800e5fddea59731377d070f65b",1456182006400,6,108,10,8,"is_certainly","possible",7321,"possible","is_certainly possible","none"
"5acb9dcf55f0f205080d369ab309160e3d9dea800e5fddea59731377d070f65b",1456182017688,7,103,10,3,"is","unlikely",11286,"unlikely","is unlikely","none"
"5acb9dcf55f0f205080d369ab309160e3d9dea800e5fddea59731377d070f65b",1456182025706,8,105,10,5,"is_probably","probable",8016,"likely","is_probably likely","none"
"5acb9dcf55f0f205080d369ab309160e3d9dea800e5fddea59731377d070f65b",1456182037308,9,80,8,0,"is_certainly","unlikely",11599,"unlikely","is_certainly unlikely","low"
"5acb9dcf55f0f205080d369ab309160e3d9dea800e5fddea59731377d070f65b",1456182041660,10,86,8,6,"is_probably","probable",4350,"likely","is_probably likely","low"
"5acb9dcf55f0f205080d369ab309160e3d9dea800e5fddea59731377d070f65b",1456182048271,11,82,8,2,"might_be","unlikely",6609,"unlikely","might_be unlikely","low"
"5acb9dcf55f0f205080d369ab309160e3d9dea800e5fddea59731377d070f65b",1456182054157,12,84,8,4,"might_be","possible",5884,"possible","might_be possible","low"
"e2b5732f421740d3dfa2a5d7b6f270277bc1c4041d7de8b304325ff1b9b6ce63",1456262140317,1,108,10,8,"is","likely",25399,"likely","is likely","none"
"e2b5732f421740d3dfa2a5d7b6f270277bc1c4041d7de8b304325ff1b9b6ce63",1456262158561,2,42,4,2,"is","possible",18240,"possible","is possible","high"
"e2b5732f421740d3dfa2a5d7b6f270277bc1c4041d7de8b304325ff1b9b6ce63",1456262175685,3,86,8,6,"is","possible",17121,"possible","is possible","low"
"e2b5732f421740d3dfa2a5d7b6f270277bc1c4041d7de8b304325ff1b9b6ce63",1456262185548,4,102,10,2,"is","unlikely",9859,"unlikely","is unlikely","none"
"e2b5732f421740d3dfa2a5d7b6f270277bc1c4041d7de8b304325ff1b9b6ce63",1456262193567,5,43,4,3,"is","likely",8011,"likely","is likely","high"
"e2b5732f421740d3dfa2a5d7b6f270277bc1c4041d7de8b304325ff1b9b6ce63",1456262212371,6,84,8,4,"is","possible",18802,"possible","is possible","low"
"e2b5732f421740d3dfa2a5d7b6f270277bc1c4041d7de8b304325ff1b9b6ce63",1456262221663,7,105,10,5,"is","possible",9286,"possible","is possible","none"
"e2b5732f421740d3dfa2a5d7b6f270277bc1c4041d7de8b304325ff1b9b6ce63",1456262231481,8,22,2,2,"is","likely",9814,"likely","is likely","high"
"e2b5732f421740d3dfa2a5d7b6f270277bc1c4041d7de8b304325ff1b9b6ce63",1456262239928,9,41,4,1,"is","unlikely",8445,"unlikely","is unlikely","high"
"e2b5732f421740d3dfa2a5d7b6f270277bc1c4041d7de8b304325ff1b9b6ce63",1456262248131,10,20,2,0,"is","unlikely",8199,"unlikely","is unlikely","high"
"e2b5732f421740d3dfa2a5d7b6f270277bc1c4041d7de8b304325ff1b9b6ce63",1456262258024,11,80,8,0,"is_certainly","unlikely",9891,"unlikely","is_certainly unlikely","low"
"e2b5732f421740d3dfa2a5d7b6f270277bc1c4041d7de8b304325ff1b9b6ce63",1456262266780,12,107,10,7,"is","probable",8751,"likely","is likely","none"
"dc04d27a4e7de3e084713c7ded06c5ed620ac6371e13b1b72298bae245f81779",1456259637212,1,42,4,2,"is_probably","possible",10752,"possible","is_probably possible","high"
"dc04d27a4e7de3e084713c7ded06c5ed620ac6371e13b1b72298bae245f81779",1456259652512,2,84,8,4,"is","probable",15296,"likely","is likely","low"
"dc04d27a4e7de3e084713c7ded06c5ed620ac6371e13b1b72298bae245f81779",1456259660140,3,82,8,2,"is","unlikely",7621,"unlikely","is unlikely","low"
"dc04d27a4e7de3e084713c7ded06c5ed620ac6371e13b1b72298bae245f81779",1456259666142,4,105,10,5,"is","possible",6000,"possible","is possible","none"
"dc04d27a4e7de3e084713c7ded06c5ed620ac6371e13b1b72298bae245f81779",1456259671304,5,41,4,1,"is_probably","possible",5159,"possible","is_probably possible","high"
"dc04d27a4e7de3e084713c7ded06c5ed620ac6371e13b1b72298bae245f81779",1456259678918,6,80,8,0,"might_be","unlikely",7612,"unlikely","might_be unlikely","low"
"dc04d27a4e7de3e084713c7ded06c5ed620ac6371e13b1b72298bae245f81779",1456259685152,7,86,8,6,"is","likely",6231,"likely","is likely","low"
"dc04d27a4e7de3e084713c7ded06c5ed620ac6371e13b1b72298bae245f81779",1456259692421,8,22,2,2,"might_be","possible",7266,"possible","might_be possible","high"
"dc04d27a4e7de3e084713c7ded06c5ed620ac6371e13b1b72298bae245f81779",1456259731554,9,102,10,2,"is","unlikely",39131,"unlikely","is unlikely","none"
"dc04d27a4e7de3e084713c7ded06c5ed620ac6371e13b1b72298bae245f81779",1456259736296,10,20,2,0,"might_be","possible",4740,"possible","might_be possible","high"
"dc04d27a4e7de3e084713c7ded06c5ed620ac6371e13b1b72298bae245f81779",1456259741457,11,43,4,3,"is_probably","possible",5158,"possible","is_probably possible","high"
"dc04d27a4e7de3e084713c7ded06c5ed620ac6371e13b1b72298bae245f81779",1456259746719,12,103,10,3,"is","unlikely",5260,"unlikely","is unlikely","none"
"a5f5a40564b40d3338370bcef1cdcb62848ce7cd6c95782916f62b87b7d81141",1456267097427,1,105,10,5,"is","possible",19115,"possible","is possible","none"
"a5f5a40564b40d3338370bcef1cdcb62848ce7cd6c95782916f62b87b7d81141",1456267108155,2,41,4,1,"is","unlikely",10699,"unlikely","is unlikely","high"
"a5f5a40564b40d3338370bcef1cdcb62848ce7cd6c95782916f62b87b7d81141",1456267116054,3,80,8,0,"is","unlikely",7876,"unlikely","is unlikely","low"
"a5f5a40564b40d3338370bcef1cdcb62848ce7cd6c95782916f62b87b7d81141",1456267125135,4,102,10,2,"might_be","probable",9052,"likely","might_be likely","none"
"a5f5a40564b40d3338370bcef1cdcb62848ce7cd6c95782916f62b87b7d81141",1456267133528,5,103,10,3,"is","unlikely",8370,"unlikely","is unlikely","none"
"a5f5a40564b40d3338370bcef1cdcb62848ce7cd6c95782916f62b87b7d81141",1456267140524,6,86,8,6,"is_probably","possible",6978,"possible","is_probably possible","low"
"a5f5a40564b40d3338370bcef1cdcb62848ce7cd6c95782916f62b87b7d81141",1456267148036,7,42,4,2,"might_be","possible",7485,"possible","might_be possible","high"
"a5f5a40564b40d3338370bcef1cdcb62848ce7cd6c95782916f62b87b7d81141",1456267157736,8,88,8,8,"is_certainly","probable",9674,"likely","is_certainly likely","low"
"a5f5a40564b40d3338370bcef1cdcb62848ce7cd6c95782916f62b87b7d81141",1456267170558,9,108,10,8,"might_be","probable",12796,"likely","might_be likely","none"
"a5f5a40564b40d3338370bcef1cdcb62848ce7cd6c95782916f62b87b7d81141",1456267179519,10,107,10,7,"is_probably","probable",8947,"likely","is_probably likely","none"
"a5f5a40564b40d3338370bcef1cdcb62848ce7cd6c95782916f62b87b7d81141",1456267188230,11,20,2,0,"might_be","unlikely",8690,"unlikely","might_be unlikely","high"
"a5f5a40564b40d3338370bcef1cdcb62848ce7cd6c95782916f62b87b7d81141",1456267194524,12,22,2,2,"is","possible",6278,"possible","is possible","high"
"acc984cef5070b0bb186e8a1911b1a167d01da92cc3ea7bc93ce4e7ae906efad",1456260931817,1,107,10,7,"is_certainly","likely",17052,"likely","is_certainly likely","none"
"acc984cef5070b0bb186e8a1911b1a167d01da92cc3ea7bc93ce4e7ae906efad",1456260940996,2,84,8,4,"is","possible",9178,"possible","is possible","low"
"acc984cef5070b0bb186e8a1911b1a167d01da92cc3ea7bc93ce4e7ae906efad",1456260995694,3,22,2,2,"is","probable",54695,"likely","is likely","high"
"acc984cef5070b0bb186e8a1911b1a167d01da92cc3ea7bc93ce4e7ae906efad",1456261004908,4,103,10,3,"is_certainly","unlikely",9210,"unlikely","is_certainly unlikely","none"
"acc984cef5070b0bb186e8a1911b1a167d01da92cc3ea7bc93ce4e7ae906efad",1456261010491,5,41,4,1,"is_probably","unlikely",5582,"unlikely","is_probably unlikely","high"
"acc984cef5070b0bb186e8a1911b1a167d01da92cc3ea7bc93ce4e7ae906efad",1456261047311,6,42,4,2,"is_probably","possible",36818,"possible","is_probably possible","high"
"acc984cef5070b0bb186e8a1911b1a167d01da92cc3ea7bc93ce4e7ae906efad",1456261052881,7,108,10,8,"is_certainly","likely",5567,"likely","is_certainly likely","none"
"acc984cef5070b0bb186e8a1911b1a167d01da92cc3ea7bc93ce4e7ae906efad",1456261057943,8,102,10,2,"is_certainly","unlikely",5061,"unlikely","is_certainly unlikely","none"
"acc984cef5070b0bb186e8a1911b1a167d01da92cc3ea7bc93ce4e7ae906efad",1456261062494,9,88,8,8,"is_certainly","likely",4550,"likely","is_certainly likely","low"
"acc984cef5070b0bb186e8a1911b1a167d01da92cc3ea7bc93ce4e7ae906efad",1456261066788,10,80,8,0,"is_certainly","unlikely",4293,"unlikely","is_certainly unlikely","low"
"acc984cef5070b0bb186e8a1911b1a167d01da92cc3ea7bc93ce4e7ae906efad",1456261071752,11,82,8,2,"is_certainly","unlikely",4962,"unlikely","is_certainly unlikely","low"
"acc984cef5070b0bb186e8a1911b1a167d01da92cc3ea7bc93ce4e7ae906efad",1456261076522,12,43,4,3,"might_be","likely",4769,"likely","might_be likely","high"
"0a42b9ff4379072c1e5666eed587981273845a4ae5b7c332e8fa4bde5ef7ae22",1455741278720,1,108,10,8,"is_certainly","likely",14844,"likely","is_certainly likely","none"
"0a42b9ff4379072c1e5666eed587981273845a4ae5b7c332e8fa4bde5ef7ae22",1455741306560,2,102,10,2,"might_be","unlikely",27824,"unlikely","might_be unlikely","none"
"0a42b9ff4379072c1e5666eed587981273845a4ae5b7c332e8fa4bde5ef7ae22",1455741333391,3,43,4,3,"might_be","likely",26831,"likely","might_be likely","high"
"0a42b9ff4379072c1e5666eed587981273845a4ae5b7c332e8fa4bde5ef7ae22",1455741345302,4,80,8,0,"is_probably","unlikely",11911,"unlikely","is_probably unlikely","low"
"0a42b9ff4379072c1e5666eed587981273845a4ae5b7c332e8fa4bde5ef7ae22",1455741355028,5,86,8,6,"is_probably","unlikely",9726,"unlikely","is_probably unlikely","low"
"0a42b9ff4379072c1e5666eed587981273845a4ae5b7c332e8fa4bde5ef7ae22",1455741383063,6,41,4,1,"might_be","unlikely",28033,"unlikely","might_be unlikely","high"
"0a42b9ff4379072c1e5666eed587981273845a4ae5b7c332e8fa4bde5ef7ae22",1455741397945,7,107,10,7,"is_certainly","possible",14866,"possible","is_certainly possible","none"
"0a42b9ff4379072c1e5666eed587981273845a4ae5b7c332e8fa4bde5ef7ae22",1455741407733,8,88,8,8,"is_certainly","probable",9788,"likely","is_certainly likely","low"
"0a42b9ff4379072c1e5666eed587981273845a4ae5b7c332e8fa4bde5ef7ae22",1455741417479,9,103,10,3,"might_be","possible",9715,"possible","might_be possible","none"
"0a42b9ff4379072c1e5666eed587981273845a4ae5b7c332e8fa4bde5ef7ae22",1455741426855,10,105,10,5,"is_probably","possible",9376,"possible","is_probably possible","none"
"0a42b9ff4379072c1e5666eed587981273845a4ae5b7c332e8fa4bde5ef7ae22",1455741433273,11,84,8,4,"is_probably","possible",6418,"possible","is_probably possible","low"
"0a42b9ff4379072c1e5666eed587981273845a4ae5b7c332e8fa4bde5ef7ae22",1455741463414,12,82,8,2,"might_be","unlikely",30141,"unlikely","might_be unlikely","low"
"8d8da62151dba7af0ab54ea3d046fbc751fd92d9dea628e94d6b5374138f495d",1456259813001,1,43,4,3,"might_be","likely",46924,"likely","might_be likely","high"
"8d8da62151dba7af0ab54ea3d046fbc751fd92d9dea628e94d6b5374138f495d",1456259846491,2,22,2,2,"is","possible",33490,"possible","is possible","high"
"8d8da62151dba7af0ab54ea3d046fbc751fd92d9dea628e94d6b5374138f495d",1456259863228,3,88,8,8,"is_certainly","probable",16737,"likely","is_certainly likely","low"
"8d8da62151dba7af0ab54ea3d046fbc751fd92d9dea628e94d6b5374138f495d",1456259883165,4,86,8,6,"is_probably","likely",19937,"likely","is_probably likely","low"
"8d8da62151dba7af0ab54ea3d046fbc751fd92d9dea628e94d6b5374138f495d",1456259901261,5,42,4,2,"is","possible",18096,"possible","is possible","high"
"8d8da62151dba7af0ab54ea3d046fbc751fd92d9dea628e94d6b5374138f495d",1456259909995,6,80,8,0,"is_certainly","unlikely",8734,"unlikely","is_certainly unlikely","low"
"8d8da62151dba7af0ab54ea3d046fbc751fd92d9dea628e94d6b5374138f495d",1456259927040,7,107,10,7,"is","likely",17045,"likely","is likely","none"
"8d8da62151dba7af0ab54ea3d046fbc751fd92d9dea628e94d6b5374138f495d",1456259936992,8,20,2,0,"might_be","possible",9952,"possible","might_be possible","high"
"8d8da62151dba7af0ab54ea3d046fbc751fd92d9dea628e94d6b5374138f495d",1456259950819,9,102,10,2,"is_certainly","unlikely",13817,"unlikely","is_certainly unlikely","none"
"8d8da62151dba7af0ab54ea3d046fbc751fd92d9dea628e94d6b5374138f495d",1456259960383,10,82,8,2,"is_probably","unlikely",9554,"unlikely","is_probably unlikely","low"
"8d8da62151dba7af0ab54ea3d046fbc751fd92d9dea628e94d6b5374138f495d",1456259969288,11,108,10,8,"is_certainly","likely",8905,"likely","is_certainly likely","none"
"8d8da62151dba7af0ab54ea3d046fbc751fd92d9dea628e94d6b5374138f495d",1456259982979,12,103,10,3,"is","unlikely",13691,"unlikely","is unlikely","none"
"9f4e4c9480f135c46a9ce06662b47c1a01ca50ca1076892fd3383038fccb2008",1456177464305,1,86,8,6,"is_certainly","probable",28912,"likely","is_certainly likely","low"
"9f4e4c9480f135c46a9ce06662b47c1a01ca50ca1076892fd3383038fccb2008",1456177478656,2,43,4,3,"might_be","likely",14348,"likely","might_be likely","high"
"9f4e4c9480f135c46a9ce06662b47c1a01ca50ca1076892fd3383038fccb2008",1456177495432,3,42,4,2,"might_be","likely",16774,"likely","might_be likely","high"
"9f4e4c9480f135c46a9ce06662b47c1a01ca50ca1076892fd3383038fccb2008",1456177513759,4,102,10,2,"is","unlikely",18323,"unlikely","is unlikely","none"
"9f4e4c9480f135c46a9ce06662b47c1a01ca50ca1076892fd3383038fccb2008",1456177525511,5,103,10,3,"is","unlikely",11748,"unlikely","is unlikely","none"
"9f4e4c9480f135c46a9ce06662b47c1a01ca50ca1076892fd3383038fccb2008",1456177533285,6,88,8,8,"is_certainly","probable",7772,"likely","is_certainly likely","low"
"9f4e4c9480f135c46a9ce06662b47c1a01ca50ca1076892fd3383038fccb2008",1456177541302,7,22,2,2,"might_be","possible",8015,"possible","might_be possible","high"
"9f4e4c9480f135c46a9ce06662b47c1a01ca50ca1076892fd3383038fccb2008",1456177552204,8,84,8,4,"might_be","possible",10901,"possible","might_be possible","low"
"9f4e4c9480f135c46a9ce06662b47c1a01ca50ca1076892fd3383038fccb2008",1456177559035,9,105,10,5,"might_be","possible",6830,"possible","might_be possible","none"
"9f4e4c9480f135c46a9ce06662b47c1a01ca50ca1076892fd3383038fccb2008",1456177566275,10,41,4,1,"might_be","unlikely",7238,"unlikely","might_be unlikely","high"
"9f4e4c9480f135c46a9ce06662b47c1a01ca50ca1076892fd3383038fccb2008",1456177575572,11,80,8,0,"is","unlikely",9296,"unlikely","is unlikely","low"
"9f4e4c9480f135c46a9ce06662b47c1a01ca50ca1076892fd3383038fccb2008",1456177582922,12,108,10,8,"is","probable",7349,"likely","is likely","none"
"cb4faf56879211ee9bd09a09c7b19ddc12dd7e426d68f4f4ed0b143d5448360a",1456283231959,1,103,10,3,"is_probably","possible",6680,"possible","is_probably possible","none"
"cb4faf56879211ee9bd09a09c7b19ddc12dd7e426d68f4f4ed0b143d5448360a",1456283238008,2,20,2,0,"is_certainly","probable",6047,"likely","is_certainly likely","high"
"cb4faf56879211ee9bd09a09c7b19ddc12dd7e426d68f4f4ed0b143d5448360a",1456283246543,3,22,2,2,"might_be","possible",8531,"possible","might_be possible","high"
"cb4faf56879211ee9bd09a09c7b19ddc12dd7e426d68f4f4ed0b143d5448360a",1456283253918,4,82,8,2,"is_certainly","probable",7373,"likely","is_certainly likely","low"
"cb4faf56879211ee9bd09a09c7b19ddc12dd7e426d68f4f4ed0b143d5448360a",1456283316097,5,80,8,0,"is_certainly","likely",62178,"likely","is_certainly likely","low"
"cb4faf56879211ee9bd09a09c7b19ddc12dd7e426d68f4f4ed0b143d5448360a",1456283322882,6,88,8,8,"is","unlikely",6779,"unlikely","is unlikely","low"
"cb4faf56879211ee9bd09a09c7b19ddc12dd7e426d68f4f4ed0b143d5448360a",1456283329257,7,102,10,2,"is_probably","possible",6373,"possible","is_probably possible","none"
"cb4faf56879211ee9bd09a09c7b19ddc12dd7e426d68f4f4ed0b143d5448360a",1456283333296,8,43,4,3,"is_probably","probable",4037,"likely","is_probably likely","high"
"cb4faf56879211ee9bd09a09c7b19ddc12dd7e426d68f4f4ed0b143d5448360a",1456283337151,9,42,4,2,"might_be","possible",3853,"possible","might_be possible","high"
"cb4faf56879211ee9bd09a09c7b19ddc12dd7e426d68f4f4ed0b143d5448360a",1456283341582,10,86,8,6,"might_be","unlikely",4429,"unlikely","might_be unlikely","low"
"cb4faf56879211ee9bd09a09c7b19ddc12dd7e426d68f4f4ed0b143d5448360a",1456283345447,11,84,8,4,"is","unlikely",3863,"unlikely","is unlikely","low"
"cb4faf56879211ee9bd09a09c7b19ddc12dd7e426d68f4f4ed0b143d5448360a",1456283349093,12,105,10,5,"might_be","unlikely",3644,"unlikely","might_be unlikely","none"
"22c5ad363a71b8aa71014aa49a5c4faaeceec4e174b43f6c533f78d86b906a9c",1456169498163,1,22,2,2,"might_be","possible",11666,"possible","might_be possible","high"
"22c5ad363a71b8aa71014aa49a5c4faaeceec4e174b43f6c533f78d86b906a9c",1456169505343,2,43,4,3,"is","possible",7171,"possible","is possible","high"
"22c5ad363a71b8aa71014aa49a5c4faaeceec4e174b43f6c533f78d86b906a9c",1456169513366,3,41,4,1,"is","unlikely",8014,"unlikely","is unlikely","high"
"22c5ad363a71b8aa71014aa49a5c4faaeceec4e174b43f6c533f78d86b906a9c",1456169523726,4,86,8,6,"is_probably","likely",10351,"likely","is_probably likely","low"
"22c5ad363a71b8aa71014aa49a5c4faaeceec4e174b43f6c533f78d86b906a9c",1456169552671,5,107,10,7,"is","probable",28935,"likely","is likely","none"
"22c5ad363a71b8aa71014aa49a5c4faaeceec4e174b43f6c533f78d86b906a9c",1456169560670,6,88,8,8,"is_certainly","likely",7984,"likely","is_certainly likely","low"
"22c5ad363a71b8aa71014aa49a5c4faaeceec4e174b43f6c533f78d86b906a9c",1456169566945,7,84,8,4,"might_be","possible",6260,"possible","might_be possible","low"
"22c5ad363a71b8aa71014aa49a5c4faaeceec4e174b43f6c533f78d86b906a9c",1456169573397,8,108,10,8,"is_probably","likely",6439,"likely","is_probably likely","none"
"22c5ad363a71b8aa71014aa49a5c4faaeceec4e174b43f6c533f78d86b906a9c",1456169582687,9,80,8,0,"is_certainly","unlikely",9277,"unlikely","is_certainly unlikely","low"
"22c5ad363a71b8aa71014aa49a5c4faaeceec4e174b43f6c533f78d86b906a9c",1456169588621,10,105,10,5,"might_be","possible",5916,"possible","might_be possible","none"
"22c5ad363a71b8aa71014aa49a5c4faaeceec4e174b43f6c533f78d86b906a9c",1456169597285,11,82,8,2,"is","unlikely",8653,"unlikely","is unlikely","low"
"22c5ad363a71b8aa71014aa49a5c4faaeceec4e174b43f6c533f78d86b906a9c",1456169604251,12,20,2,0,"might_be","possible",6957,"possible","might_be possible","high"
"ef69af297f77661a72cdcc471e72972d07ae852a40391c51743476bc02521198",1456282841163,1,88,8,8,"is_probably","possible",5543,"possible","is_probably possible","low"
"ef69af297f77661a72cdcc471e72972d07ae852a40391c51743476bc02521198",1456282847682,2,20,2,0,"might_be","probable",6518,"likely","might_be likely","high"
"ef69af297f77661a72cdcc471e72972d07ae852a40391c51743476bc02521198",1456282854533,3,82,8,2,"is_certainly","unlikely",6849,"unlikely","is_certainly unlikely","low"
"ef69af297f77661a72cdcc471e72972d07ae852a40391c51743476bc02521198",1456282866576,4,86,8,6,"might_be","unlikely",12041,"unlikely","might_be unlikely","low"
"ef69af297f77661a72cdcc471e72972d07ae852a40391c51743476bc02521198",1456282879594,5,108,10,8,"is_certainly","unlikely",13016,"unlikely","is_certainly unlikely","none"
"ef69af297f77661a72cdcc471e72972d07ae852a40391c51743476bc02521198",1456282927053,6,103,10,3,"is_probably","probable",47456,"likely","is_probably likely","none"
"ef69af297f77661a72cdcc471e72972d07ae852a40391c51743476bc02521198",1456282932379,7,102,10,2,"is_probably","likely",5324,"likely","is_probably likely","none"
"ef69af297f77661a72cdcc471e72972d07ae852a40391c51743476bc02521198",1456282937237,8,43,4,3,"is_probably","unlikely",4856,"unlikely","is_probably unlikely","high"
"ef69af297f77661a72cdcc471e72972d07ae852a40391c51743476bc02521198",1456282941914,9,80,8,0,"is_certainly","likely",4676,"likely","is_certainly likely","low"
"ef69af297f77661a72cdcc471e72972d07ae852a40391c51743476bc02521198",1456282947195,10,84,8,4,"might_be","possible",5279,"possible","might_be possible","low"
"ef69af297f77661a72cdcc471e72972d07ae852a40391c51743476bc02521198",1456282953315,11,105,10,5,"might_be","likely",6118,"likely","might_be likely","none"
"ef69af297f77661a72cdcc471e72972d07ae852a40391c51743476bc02521198",1456283030918,12,107,10,7,"is_probably","unlikely",77601,"unlikely","is_probably unlikely","none"
"81c99f625d4ef2f105d26ff252dd39ec7797d682e4474d7021c3ebedc6b1b87e",1456259608710,1,88,8,8,"might_be","possible",21570,"possible","might_be possible","low"
"81c99f625d4ef2f105d26ff252dd39ec7797d682e4474d7021c3ebedc6b1b87e",1456259631709,2,20,2,0,"is","unlikely",22997,"unlikely","is unlikely","high"
"81c99f625d4ef2f105d26ff252dd39ec7797d682e4474d7021c3ebedc6b1b87e",1456259644181,3,103,10,3,"is","unlikely",12471,"unlikely","is unlikely","none"
"81c99f625d4ef2f105d26ff252dd39ec7797d682e4474d7021c3ebedc6b1b87e",1456259651885,4,82,8,2,"is","unlikely",7704,"unlikely","is unlikely","low"
"81c99f625d4ef2f105d26ff252dd39ec7797d682e4474d7021c3ebedc6b1b87e",1456259658317,5,102,10,2,"is","unlikely",6431,"unlikely","is unlikely","none"
"81c99f625d4ef2f105d26ff252dd39ec7797d682e4474d7021c3ebedc6b1b87e",1456259665540,6,41,4,1,"is","unlikely",7222,"unlikely","is unlikely","high"
"81c99f625d4ef2f105d26ff252dd39ec7797d682e4474d7021c3ebedc6b1b87e",1456259669685,7,86,8,6,"is","probable",4144,"likely","is likely","low"
"81c99f625d4ef2f105d26ff252dd39ec7797d682e4474d7021c3ebedc6b1b87e",1456259676117,8,84,8,4,"is","possible",6431,"possible","is possible","low"
"81c99f625d4ef2f105d26ff252dd39ec7797d682e4474d7021c3ebedc6b1b87e",1456259684700,9,105,10,5,"is","possible",8582,"possible","is possible","none"
"81c99f625d4ef2f105d26ff252dd39ec7797d682e4474d7021c3ebedc6b1b87e",1456259688861,10,80,8,0,"is","unlikely",4160,"unlikely","is unlikely","low"
"81c99f625d4ef2f105d26ff252dd39ec7797d682e4474d7021c3ebedc6b1b87e",1456259693517,11,43,4,3,"is","likely",4655,"likely","is likely","high"
"81c99f625d4ef2f105d26ff252dd39ec7797d682e4474d7021c3ebedc6b1b87e",1456259698548,12,107,10,7,"is","likely",5030,"likely","is likely","none"
"d0ed7f8000b2f91aa44093a08530f6e22f2b5b97e17525fff29f15e8b3ddd81b",1456259577639,1,20,2,0,"is_probably","possible",17054,"possible","is_probably possible","high"
"d0ed7f8000b2f91aa44093a08530f6e22f2b5b97e17525fff29f15e8b3ddd81b",1456259583668,2,105,10,5,"might_be","probable",6023,"likely","might_be likely","none"
"d0ed7f8000b2f91aa44093a08530f6e22f2b5b97e17525fff29f15e8b3ddd81b",1456259586696,3,41,4,1,"might_be","possible",3023,"possible","might_be possible","high"
"d0ed7f8000b2f91aa44093a08530f6e22f2b5b97e17525fff29f15e8b3ddd81b",1456259611323,4,103,10,3,"is_probably","possible",24623,"possible","is_probably possible","none"
"d0ed7f8000b2f91aa44093a08530f6e22f2b5b97e17525fff29f15e8b3ddd81b",1456259613722,5,43,4,3,"is_probably","possible",2394,"possible","is_probably possible","high"
"d0ed7f8000b2f91aa44093a08530f6e22f2b5b97e17525fff29f15e8b3ddd81b",1456259616415,6,84,8,4,"might_be","probable",2689,"likely","might_be likely","low"
"d0ed7f8000b2f91aa44093a08530f6e22f2b5b97e17525fff29f15e8b3ddd81b",1456259619938,7,82,8,2,"might_be","likely",3520,"likely","might_be likely","low"
"d0ed7f8000b2f91aa44093a08530f6e22f2b5b97e17525fff29f15e8b3ddd81b",1456259622598,8,108,10,8,"might_be","possible",2656,"possible","might_be possible","none"
"d0ed7f8000b2f91aa44093a08530f6e22f2b5b97e17525fff29f15e8b3ddd81b",1456259629595,9,102,10,2,"is_probably","possible",6994,"possible","is_probably possible","none"
